Index Time Difference Hz AveHz Pressure Acceleration-X Acceleration-Y Acceleration-Z Magnetic-X Magnetic-Y Magnetic-Z Angular-Vel-X Angular-Vel-Y Angular-Vel-Z Heading Roll Pitch Quaternion-X Quaternion-Y Quaternion-Z Quaternion-W Linear-Acceleration-X Linear-Acceleration-Y Linear-Acceleration-Z Gravity-X Gravity-Y Gravity-Z Position-X Position-Y Position-Z
0 0.0 0.0 0 0 2.718635465329414e-38 7.0 -2.0 986.0 26.875 9.25 -46.5 0.0 0.0 0.0625 287.8125 0.4375 -0.0625 0.0029296875 -0.00262451171875 0.5889892578125 0.80816650390625 0.0 -3.0 5.0 7.0 1.0 980.0 2103 2766 734 
1 0.11404776573181152 0.11404776573181152 8.76825594594764 8.76825594594764 2.719065944217655e-38 10.0 4.0 980.0 27.5625 8.5 -46.875 -0.0625 -0.1875 0.0 287.8125 0.4375 -0.0625 0.0029296875 -0.00262451171875 0.5889892578125 0.80816650390625 3.0 3.0 0.0 7.0 1.0 980.0 2151 2750 704 
2 0.22176289558410645 0.10771512985229492 9.283746873547445 9.018641259765992 2.719065944217655e-38 10.0 3.0 984.0 27.5625 10.25 -45.25 0.1875 -0.0625 -0.0625 287.8125 0.4375 -0.0625 0.0029296875 -0.00262451171875 0.5889892578125 0.80816650390625 3.0 2.0 3.0 7.0 1.0 980.0 2193 2750 691 
3 0.3379993438720703 0.11623644828796387 8.603153440499169 8.875756874650836 2.719065944217655e-38 7.0 1.0 979.0 27.5625 8.875 -46.875 0.0 -0.125 0.0 287.8125 0.4375 -0.0625 0.0029296875 -0.00262451171875 0.5889892578125 0.80816650390625 0.0 0.0 -1.0 7.0 1.0 980.0 2218 2746 692 
4 0.4383397102355957 0.10034036636352539 9.966078819934514 9.125342529085737 2.719065944217655e-38 6.0 0.0 977.0 26.875 8.875 -46.5 -0.0625 0.0625 0.0 287.8125 0.4375 -0.0625 0.0029296875 -0.00262451171875 0.5889892578125 0.80816650390625 -1.0 0.0 -3.0 7.0 1.0 980.0 2228 2747 682 
5 0.5193862915039062 0.08104658126831055 12.338583372066342 9.626746184467589 2.718778958292161e-38 9.0 1.0 986.0 26.875 10.0 -45.25 0.1875 -0.0625 0.0625 287.8125 0.4375 -0.0625 0.0029296875 -0.00262451171875 0.5889892578125 0.80816650390625 2.0 0.0 5.0 7.0 1.0 980.0 2232 2755 680 
6 0.6388058662414551 0.11941957473754883 8.373836552321704 9.392524892268487 2.718778958292161e-38 10.0 0.0 978.0 28.0 8.875 -46.0625 -0.0625 0.125 -0.0625 287.8125 0.4375 -0.0625 0.0029296875 -0.00262451171875 0.5889892578125 0.80816650390625 3.0 -2.0 -1.0 7.0 1.0 980.0 2224 2752 666 
7 0.7419767379760742 0.10317087173461914 9.69265823954891 9.434258032258853 2.718778958292161e-38 6.0 0.0 978.0 28.0 9.5625 -46.0625 0.0 0.0 15.9375 287.8125 0.4375 -0.0625 0.0029296875 -0.00262451171875 0.5889892578125 0.80816650390625 0.0 0.0 6.0 7.0 1.0 980.0 2210 2751 671 
8 0.8392105102539062 0.09723377227783203 10.284492482124817 9.53276907552024 2.719926901994136e-38 11.0 3.0 968.0 27.25 8.875 -45.6875 -0.1875 0.0625 -0.0625 287.8125 0.4375 -0.0625 0.0029296875 -0.00262451171875 0.5889892578125 0.80816650390625 3.0 1.0 -12.0 7.0 1.0 980.0 2202 2755 663 
9 0.9202709197998047 0.08106040954589844 12.336478505376597 9.779728780257292 2.719926901994136e-38 6.0 -3.0 985.0 27.5625 9.25 -46.0625 0.0 0.0 -0.0625 287.8125 0.4375 -0.0625 0.0029296875 -0.00262451171875 0.5889892578125 0.80816650390625 0.0 -4.0 4.0 7.0 1.0 980.0 2199 2741 661 
10 1.0415983200073242 0.12132740020751953 8.242161278405295 9.600629924143583 2.719926901994136e-38 9.0 1.0 979.0 27.25 8.5 -46.5 0.0 0.125 -0.0625 287.8125 0.4375 -0.0625 0.0029296875 -0.00262451171875 0.5889892578125 0.80816650390625 1.0 0.0 0.0 7.0 1.0 980.0 2200 2741 670 
11 1.1421518325805664 0.10055351257324219 9.944953432348868 9.630943703121073 2.719926901994136e-38 7.0 3.0 973.0 26.875 7.75 -46.5 -0.0625 -0.0625 -0.1875 287.8125 0.4375 -0.0625 0.0029296875 -0.00262451171875 0.5889892578125 0.80816650390625 0.0 1.0 -7.0 7.0 1.0 980.0 2205 2732 664 
12 1.2471318244934082 0.1049799919128418 9.525624662175973 9.62207824732118 2.7193529301431485e-38 9.0 0.0 977.0 27.5625 9.25 -45.6875 0.25 -0.125 -0.0625 287.8125 0.4375 -0.0625 0.0029296875 -0.00262451171875 0.5889892578125 0.80816650390625 1.0 0.0 -2.0 7.0 1.0 980.0 2209 2732 672 
13 1.3163020610809326 0.06917023658752441 14.457085147231671 9.87615258258013 2.7193529301431485e-38 10.0 2.0 976.0 27.25 8.875 -46.875 -0.0625 0.0625 0.125 287.8125 0.4375 -0.0625 0.0029296875 -0.00262451171875 0.5889892578125 0.80816650390625 3.0 3.0 2.0 7.0 1.0 980.0 2205 2742 683 
14 1.4279181957244873 0.11161613464355469 8.95927818315419 9.80448322734397 2.7193529301431485e-38 8.0 2.0 983.0 27.25 8.875 -46.875 0.0625 0.0625 -0.125 287.8125 0.4375 -0.0625 0.0029296875 -0.00262451171875 0.5889892578125 0.80816650390625 0.0 -2.0 2.0 7.0 1.0 980.0 2201 2725 667 
15 1.5444214344024658 0.11650323867797852 8.583452368771104 9.71237491650294 2.7193529301431485e-38 8.0 0.0 988.0 27.25 8.875 -47.25 0.0625 0.0 -0.0625 287.8125 0.4375 -0.0625 0.0029296875 -0.00262451171875 0.5889892578125 0.80816650390625 0.0 0.0 -4.0 7.0 1.0 980.0 2195 2714 661 
16 1.6459040641784668 0.10148262977600098 9.85390309856243 9.721101216179454 2.717272282183319e-38 10.0 3.0 986.0 28.0 8.0625 -46.5 -0.0625 -0.0625 0.0 287.8125 0.4375 -0.0625 0.0029296875 -0.00262451171875 0.5889892578125 0.80816650390625 1.0 1.0 -6.0 7.0 1.0 980.0 2196 2715 657 
17 1.7464818954467773 0.10057783126831055 9.942548843912823 9.733854123721756 2.717272282183319e-38 10.0 2.0 987.0 26.875 8.0625 -46.875 0.125 -0.0625 0.0 287.8125 0.4375 -0.0625 0.0029296875 -0.00262451171875 0.5889892578125 0.80816650390625 3.0 1.0 -6.0 7.0 1.0 980.0 2201 2714 634 
18 1.855942726135254 0.10946083068847656 9.135688023837321 9.698575148104128 2.717272282183319e-38 8.0 0.0 971.0 27.5625 8.875 -46.5 0.1875 -0.0625 0.0625 287.8125 0.4375 -0.0625 0.0029296875 -0.00262451171875 0.5889892578125 0.80816650390625 0.0 -1.0 0.0 7.0 1.0 980.0 2211 2727 639 
19 1.9305949211120605 0.07465219497680664 13.395453413133875 9.841525942197977 2.717272282183319e-38 9.0 4.0 982.0 27.25 8.875 -45.25 0.3125 -0.125 0.0 287.8125 0.4375 -0.0625 0.0029296875 -0.00262451171875 0.5889892578125 0.80816650390625 3.0 0.0 1.0 7.0 1.0 980.0 2217 2741 644 
20 2.0469284057617188 0.1163334846496582 8.595977357779063 9.770737434540338 2.7188507047735345e-38 13.0 0.0 989.0 27.5625 8.875 -45.6875 0.0 0.0625 0.0 287.8125 0.4375 -0.0625 0.0029296875 -0.00262451171875 0.5889892578125 0.80816650390625 6.0 -1.0 -2.0 7.0 1.0 980.0 2205 2754 644 
21 2.1311442852020264 0.08421587944030762 11.87424517378343 9.853861207716989 2.7188507047735345e-38 8.0 2.0 984.0 27.25 8.875 -47.25 0.125 0.1875 0.1875 287.8125 0.4375 -0.0625 0.0029296875 -0.00262451171875 0.5889892578125 0.80816650390625 1.0 1.0 3.0 7.0 1.0 980.0 2192 2762 632 
22 2.2367913722991943 0.10564708709716797 9.465476308686664 9.835517193266995 2.7188507047735345e-38 15.0 1.0 983.0 26.875 9.25 -46.0625 0.1875 -0.125 0.0 287.8125 0.4375 -0.0625 0.0029296875 -0.00262451171875 0.5889892578125 0.80816650390625 4.0 -1.0 0.0 7.0 1.0 980.0 2182 2774 632 
23 2.3470458984375 0.11025452613830566 9.069922433348253 9.799552712331616 2.7188507047735345e-38 5.0 1.0 976.0 27.5625 8.875 -46.0625 -0.0625 0.0625 0.0 287.8125 0.4375 -0.0625 0.0029296875 -0.00262451171875 0.5889892578125 0.80816650390625 -2.0 0.0 -4.0 7.0 1.0 980.0 2179 2771 606 
24 2.446481227874756 0.09943532943725586 10.056787719811442 9.810007829428008 2.719783409031389e-38 10.0 2.0 979.0 26.5 9.25 -46.0625 0.0625 -0.1875 0.0625 287.8125 0.4375 -0.0625 0.0029296875 -0.00262451171875 0.5889892578125 0.80816650390625 2.0 0.0 -8.0 7.0 1.0 980.0 2182 2772 610 
25 2.5302722454071045 0.08379101753234863 11.934453470671086 9.880359730214588 2.719783409031389e-38 6.0 0.0 980.0 26.875 8.5 -47.25 0.125 0.0625 -0.0625 287.8125 0.4375 -0.0625 0.0029296875 -0.00262451171875 0.5889892578125 0.80816650390625 -1.0 -1.0 0.0 7.0 1.0 980.0 2233 2703 753 
26 2.5964620113372803 0.06618976593017578 15.108075787047042 10.013626190744448 2.719783409031389e-38 12.0 1.0 977.0 27.5625 8.875 -46.0625 -0.0625 -0.0625 0.0 287.8125 0.4375 -0.0625 0.0029296875 -0.00262451171875 0.5889892578125 0.80816650390625 3.0 0.0 -6.0 7.0 1.0 980.0 2238 2688 756 
27 2.7096619606018066 0.11319994926452637 8.833926220790024 9.964342561019453 2.719783409031389e-38 7.0 4.0 974.0 26.0625 9.25 -46.0625 0.0 -0.1875 0.1875 287.8125 0.4375 -0.0625 0.0029296875 -0.00262451171875 0.5889892578125 0.80816650390625 0.0 3.0 -6.0 7.0 1.0 980.0 2302 2614 936 
28 2.8309316635131836 0.12126970291137695 8.24608270650084 9.89073680614813 2.7182049864411736e-38 8.0 1.0 984.0 27.25 9.25 -47.25 0.125 0.125 0.0625 287.8125 0.4375 -0.0625 0.0029296875 -0.00262451171875 0.5889892578125 0.80816650390625 0.0 0.0 0.0 7.0 1.0 980.0 2346 2547 1069 
29 2.9221091270446777 0.09117746353149414 10.967622494286477 9.924338462105835 2.7182049864411736e-38 8.0 2.0 983.0 28.75 9.5625 -46.5625 -0.125 0.0 0.0 287.8125 0.4375 -0.0625 0.0029296875 -0.00262451171875 0.5889892578125 0.80816650390625 1.0 0.0 -1.0 7.0 1.0 980.0 2375 2523 1134 
30 3.0314977169036865 0.10938858985900879 9.141721282712414 9.896098497029852 2.7182049864411736e-38 8.0 6.0 980.0 26.5 8.0625 -46.875 0.0625 0.125 0.125 287.8125 0.4375 -0.0625 0.0029296875 -0.00262451171875 0.5889892578125 0.80816650390625 0.0 4.0 0.0 7.0 1.0 980.0 2390 2487 1174 
31 3.147213935852051 0.11571621894836426 8.641830929908169 9.849981803543113 2.719568169587269e-38 11.0 1.0 975.0 27.25 8.875 -46.5 0.125 0.0625 0.0625 287.8125 0.4375 -0.0625 0.0029296875 -0.00262451171875 0.5889892578125 0.80816650390625 3.0 0.0 -4.0 7.0 1.0 980.0 2400 2476 1196 
32 3.257866621017456 0.11065268516540527 9.037286338828427 9.822378790328182 2.719568169587269e-38 7.0 0.0 982.0 27.5625 9.25 -46.0625 -0.0625 -0.125 0.0625 287.8125 0.4375 -0.0625 0.0029296875 -0.00262451171875 0.5889892578125 0.80816650390625 0.0 0.0 2.0 7.0 1.0 980.0 2406 2467 1200 
33 3.3624417781829834 0.10457515716552734 9.56250056996945 9.814296328971007 2.719568169587269e-38 10.0 0.0 976.0 26.875 9.5625 -46.0625 0.0 0.125 0.125 287.8125 0.4375 -0.0625 0.0029296875 -0.00262451171875 0.5889892578125 0.80816650390625 2.0 0.0 -3.0 7.0 1.0 980.0 2409 2465 1197 
34 3.4788267612457275 0.11638498306274414 8.592173781224778 9.773409926231853 2.719568169587269e-38 12.0 2.0 987.0 27.25 8.5 -46.5 0.125 0.0625 0.0 287.8125 0.4375 -0.0625 0.0029296875 -0.00262451171875 0.5889892578125 0.80816650390625 5.0 0.0 6.0 7.0 1.0 980.0 2396 2480 1235 
35 3.5919041633605957 0.11307740211486816 8.843499950451315 9.744135257565976 2.7172005357019456e-38 8.0 3.0 978.0 28.0 10.0 -46.875 0.0 -0.125 -0.0625 287.8125 0.4375 -0.0625 0.0029296875 -0.00262451171875 0.5889892578125 0.80816650390625 1.0 2.0 -2.0 7.0 1.0 980.0 2317 2584 1016 
36 3.7233920097351074 0.13148784637451172 7.6052656391659115 9.66860322680908 2.7172005357019456e-38 8.0 0.0 981.0 27.5625 8.875 -45.6875 -0.0625 0.125 -0.0625 287.8125 0.4375 -0.0625 0.0029296875 -0.00262451171875 0.5889892578125 0.80816650390625 0.0 0.0 0.0 7.0 1.0 980.0 2247 2663 842 
37 3.79463267326355 0.07124066352844238 14.036927092920132 9.750614403522327 2.7172005357019456e-38 7.0 6.0 984.0 26.875 9.5625 -45.25 0.0 0.0625 -0.125 287.8125 0.4375 -0.0625 0.0029296875 -0.00262451171875 0.5889892578125 0.80816650390625 0.0 4.0 3.0 7.0 1.0 980.0 2179 2717 750 
38 3.9070889949798584 0.1124563217163086 8.892341352962626 9.72591104242198 2.7181332399598e-38 7.0 0.0 976.0 27.5625 9.25 -46.0625 0.0 0.125 0.0625 287.8125 0.4375 -0.0625 0.0029296875 -0.00262451171875 0.5889892578125 0.80816650390625 0.0 0.0 -4.0 7.0 1.0 980.0 2181 2753 697 
39 4.001925468444824 0.09483647346496582 10.54446631621553 9.745308928793136 2.7181332399598e-38 11.0 -2.0 978.0 27.25 10.25 -47.25 0.125 -0.125 0.0 287.8125 0.4375 -0.0625 0.0029296875 -0.00262451171875 0.5889892578125 0.80816650390625 3.0 -3.0 -2.0 7.0 1.0 980.0 2157 2792 658 
40 4.120902061462402 0.11897659301757812 8.405014588476707 9.706612630780414 2.7181332399598e-38 8.0 3.0 977.0 27.25 8.5 -46.5 -0.125 0.1875 0.0 287.8125 0.4375 -0.0625 0.0029296875 -0.00262451171875 0.5889892578125 0.80816650390625 0.0 2.0 2.0 7.0 1.0 980.0 2252 2692 846 
41 4.237179756164551 0.11627769470214844 8.600101701031774 9.676247494657332 2.7181332399598e-38 10.0 3.0 980.0 27.5625 8.875 -46.5 0.0625 0.0625 0.125 287.8125 0.4375 -0.0625 0.0029296875 -0.00262451171875 0.5889892578125 0.80816650390625 3.0 1.0 4.0 7.0 1.0 980.0 2296 2630 937 
42 4.333325147628784 0.0961453914642334 10.400914539642864 9.692326001196239 2.717415775146066e-38 5.0 1.0 985.0 28.0 9.875 -46.5 -0.0625 -0.125 -0.0625 287.8125 0.4375 -0.0625 0.0029296875 -0.00262451171875 0.5889892578125 0.80816650390625 0.0 -1.0 4.0 7.0 1.0 980.0 2217 2655 1037 
43 4.454301118850708 0.12097597122192383 8.266104333773477 9.653590732342495 2.717415775146066e-38 10.0 0.0 986.0 27.5625 8.0625 -45.25 -0.0625 0.1875 0.0 287.8125 0.4375 -0.0625 0.0029296875 -0.00262451171875 0.5889892578125 0.80816650390625 -1.0 5.0 4.0 7.0 1.0 980.0 2120 2698 1132 
44 4.538200616836548 0.08389949798583984 11.919022449559534 9.695472658648388 2.717415775146066e-38 13.0 -2.0 982.0 26.875 8.875 -46.0625 -0.125 -0.125 0.1875 287.8125 0.4375 -0.0625 0.0029296875 -0.00262451171875 0.5888671875 0.8082275390625 8.0 6.0 13.0 7.0 1.0 980.0 2197 2686 1114 
45 4.654444217681885 0.11624360084533691 8.60262408190975 9.668179033932423 2.7184919723666673e-38 -75.0 -234.0 1124.0 27.25 9.25 -45.25 -42.6875 17.5 46.125 287.75 0.1875 0.75 -0.00457763671875 -0.0054931640625 0.58941650390625 0.80780029296875 -78.0 -220.0 143.0 3.0 -13.0 980.0 2168 2688 1333 
46 4.77058482170105 0.11614060401916504 8.610253136232908 9.642423669054008 2.7184919723666673e-38 -40.0 -80.0 1233.0 28.75 9.875 -46.0625 20.125 -106.9375 44.5625 281.3125 2.125 2.8125 -0.007080078125 -0.0302734375 0.633544921875 0.7730712890625 -35.0 -4.0 303.0 37.0 -48.0 978.0 2148 2698 1432 
47 4.898345708847046 0.1277608871459961 7.827121604574261 9.59507613256286 2.7184919723666673e-38 151.0 -7.0 939.0 20.1875 5.0625 -48.5625 101.4375 -110.3125 36.5 274.75 13.625 -1.1875 0.088134765625 -0.08026123046875 0.67236328125 0.73052978515625 -79.0 -27.0 -13.0 231.0 20.0 952.0 2147 2672 1462 
48 5.0170838832855225 0.11873817443847656 8.421891314474804 9.567310636346464 2.719424676624522e-38 360.0 221.0 770.0 11.0625 -5.75 -50.6875 79.3125 -96.3125 14.125 271.625 26.6875 -18.5625 0.2694091796875 -0.06439208984375 0.6695556640625 0.689208984375 -66.0 -47.0 -70.0 426.0 269.0 840.0 2159 2652 1477 
49 5.117771863937378 0.10068798065185547 9.931672018109662 9.574479148881338 2.719424676624522e-38 532.0 325.0 652.0 2.0 -15.375 -48.875 112.5625 -107.0 -8.5625 271.5 34.5 -29.5 0.3702392578125 -0.06610107421875 0.64642333984375 0.663818359375 -52.0 -73.0 -91.0 555.0 398.0 703.0 2201 2632 1449 
50 5.228093147277832 0.1103212833404541 9.064434075825389 9.56371636684286 2.719424676624522e-38 549.0 330.0 728.0 -5.6875 -21.1875 -45.1875 -118.0625 -92.6875 41.6875 272.1875 42.875 -30.5625 0.40533447265625 -0.142822265625 0.6240234375 0.652587890625 -174.0 -72.0 24.0 678.0 344.0 618.0 2220 2601 1425 
51 5.313130617141724 0.0850374698638916 11.759522027178956 9.598860572984783 2.719424676624522e-38 740.0 67.0 523.0 -13.0 -13.875 -48.0625 -92.6875 90.25 0.75 275.0 45.3125 -16.75 0.333984375 -0.21075439453125 0.61846923828125 0.67938232421875 125.0 -63.0 -126.0 685.0 189.0 674.0 2217 2604 1297 
52 5.439303398132324 0.12617278099060059 7.925639683526484 9.560047710862216 2.7189941977362813e-38 414.0 123.0 844.0 0.0 -0.1875 -51.1875 -104.0 279.4375 -2.6875 279.125 21.0 -1.25 0.12646484375 -0.13214111328125 0.63726806640625 0.74859619140625 62.0 102.0 -70.0 352.0 20.0 915.0 2204 2653 1172 
53 5.522649765014648 0.08334636688232422 11.998123462440644 9.596842504072757 2.7189941977362813e-38 96.0 50.0 1018.0 12.25 4.375 -48.375 -93.5625 268.25 -17.6875 279.1875 3.1875 2.875 -0.0223388671875 -0.02471923828125 0.64520263671875 0.7633056640625 88.0 114.0 39.0 8.0 -64.0 978.0 2171 2684 1170 
54 5.622127294540405 0.09947752952575684 10.052521456527314 9.60490525578083 2.7189941977362813e-38 -330.0 -203.0 612.0 31.5 9.6875 -37.875 14.8125 273.375 -22.75 282.0 -25.0625 6.8125 -0.17999267578125 0.11627197265625 0.61859130859375 0.757568359375 -17.0 -120.0 -227.0 -375.0 -106.0 899.0 2118 2699 1249 
55 5.735048294067383 0.11292099952697754 8.855748746371074 9.590154638609533 2.7189941977362813e-38 -803.0 -278.0 607.0 45.6875 10.5 -22.0625 2.125 82.1875 47.6875 280.75 -41.5 7.875 -0.26922607421875 0.2384033203125 0.59503173828125 0.71875 -153.0 -177.0 -119.0 -650.0 -101.0 727.0 2047 2711 1373 
56 5.855433225631714 0.12038493156433105 8.306687448384036 9.563767161559328 2.7182049864411736e-38 -589.0 -12.0 732.0 49.375 6.5 -14.25 20.3125 -20.1875 17.3125 278.4375 -40.5 2.5 -0.23992919921875 0.2508544921875 0.61248779296875 0.71014404296875 48.0 20.0 -12.0 -637.0 -32.0 744.0 2000 2717 1459 
57 5.939180374145508 0.08374714851379395 11.94070505977037 9.597283869022213 2.7182049864411736e-38 -599.0 -6.0 750.0 48.6875 4.5625 -17.5625 5.5625 -7.25 4.1875 277.75 -39.3125 0.75 -0.22540283203125 0.2498779296875 0.619140625 0.70953369140625 21.0 3.0 -8.0 -621.0 -10.0 758.0 1986 2721 1502 
58 6.055181980133057 0.11600160598754883 8.620570305788148 9.578572566488829 2.7182049864411736e-38 -638.0 43.0 793.0 48.0625 3.5 -17.5 5.625 -1.25 3.0 277.625 -38.375 -0.625 -0.21307373046875 0.2508544921875 0.62152099609375 0.7109375 -28.0 34.0 25.0 -609.0 8.0 768.0 1990 2727 1524 
59 6.170819997787476 0.11563801765441895 8.647675049121585 9.561128022070685 2.720931352733364e-38 -614.0 19.0 755.0 48.875 4.25 -17.875 1.375 3.625 -4.25 277.875 -38.75 -0.75 -0.21368408203125 0.2540283203125 0.61932373046875 0.71148681640625 0.0 9.0 -9.0 -614.0 10.0 764.0 2020 2717 1463 
60 6.261864423751831 0.09104442596435547 10.983648800108938 9.581810773867037 2.720931352733364e-38 -602.0 26.0 765.0 48.0625 4.5625 -17.875 4.0 -1.4375 -2.8125 278.5 -39.0 -0.5625 -0.2149658203125 0.25604248046875 0.61517333984375 0.7139892578125 15.0 18.0 4.0 -617.0 7.0 761.0 2071 2709 1381 
61 6.338929891586304 0.07706546783447266 12.975980398222971 9.623075352350186 2.720931352733364e-38 -578.0 6.0 752.0 48.0625 3.5 -17.5625 2.0 -5.625 2.3125 278.6875 -38.875 -0.6875 -0.21295166015625 0.25604248046875 0.6142578125 0.71539306640625 36.0 -3.0 -10.0 -615.0 9.0 763.0 2119 2704 1329 
62 6.4563069343566895 0.11737704277038574 8.519553537877172 9.603013089429231 2.720931352733364e-38 -608.0 30.0 774.0 48.5 4.25 -18.75 -0.5 -6.0625 -1.25 278.375 -37.6875 -0.875 -0.2060546875 0.24932861328125 0.61810302734375 0.71649169921875 -7.0 17.0 0.0 -600.0 12.0 775.0 2114 2710 1349 
63 6.562989950180054 0.10668301582336426 9.373563282610105 9.599283326385654 2.719783409031389e-38 -543.0 -94.0 706.0 48.5 3.875 -20.75 -7.375 -95.625 27.5625 277.75 -34.75 -0.875 -0.1912841796875 0.22991943359375 0.62725830078125 0.71905517578125 15.0 -108.0 -98.0 -559.0 13.0 805.0 2155 2718 1199 
64 6.640822649002075 0.07783269882202148 12.848070478536027 9.637360216149931 2.719783409031389e-38 -313.0 164.0 1116.0 43.5625 1.5625 -27.375 33.0625 -308.9375 61.5 274.25 -18.0625 -3.0625 -0.088134765625 0.13311767578125 0.67138671875 0.72369384765625 -8.0 114.0 185.0 -304.0 50.0 930.0 2125 2740 1173 
65 6.72506046295166 0.08423781394958496 11.871153263764473 9.665340610405634 2.719783409031389e-38 266.0 281.0 1207.0 36.5 -0.5625 -37.5625 83.375 -395.4375 35.5625 272.4375 9.8125 -5.8125 0.0958251953125 -0.02703857421875 0.6881103515625 0.71875 99.0 183.0 246.0 167.0 98.0 961.0 2120 2691 1253 
66 6.8399882316589355 0.11492776870727539 8.701117330025184 9.649139408532681 2.719783409031389e-38 488.0 98.0 728.0 8.75 -6.5625 -50.75 8.625 -56.8125 2.6875 271.25 33.25 -10.75 0.259521484375 -0.1483154296875 0.66717529296875 0.6822509765625 -53.0 -53.0 -44.0 538.0 153.0 805.0 2120 2665 1293 
67 6.940673351287842 0.10068511962890625 9.931954232022429 9.653242071616603 2.719065944217655e-38 617.0 240.0 824.0 -2.0 -7.6875 -51.5 3.375 29.4375 -12.8125 271.9375 31.4375 -11.0625 0.25079345703125 -0.1361083984375 0.6661376953125 0.6890869140625 106.0 79.0 3.0 507.0 162.0 823.0 2106 2644 1326 
68 7.0563671588897705 0.11569380760192871 8.643504961309002 9.636686763716945 2.719065944217655e-38 433.0 191.0 890.0 2.1875 -7.25 -50.25 -16.3125 68.8125 -1.875 273.0 23.375 -9.5625 0.1971435546875 -0.0938720703125 0.67144775390625 0.7081298828125 23.0 35.0 -12.0 390.0 150.0 887.0 2101 2643 1378 
69 7.156234502792358 0.09986734390258789 10.013283230756743 9.64194227747515 2.719065944217655e-38 272.0 65.0 931.0 9.25 -5.75 -49.375 -32.125 75.875 -7.0 272.875 16.6875 -6.25 0.13873291015625 -0.06884765625 0.68048095703125 0.71624755859375 -2.0 -61.0 -33.0 281.0 102.0 933.0 2100 2648 1418 
70 7.260349750518799 0.10411524772644043 9.60474110984655 9.641408803342848 2.719065944217655e-38 218.0 37.0 1034.0 14.875 -3.1875 -48.5625 -21.9375 53.75 -10.875 273.0 11.625 -4.3125 0.0970458984375 -0.04815673828125 0.68426513671875 0.72113037109375 6.0 -31.0 76.0 198.0 72.0 957.0 2103 2652 1369 
71 7.339380979537964 0.07903122901916504 12.653225976752815 9.673840368546948 2.7189941977362813e-38 133.0 -13.0 825.0 17.0625 -1.25 -47.375 -8.875 -4.25 5.25 274.0 9.625 -2.75 0.07513427734375 -0.04498291015625 0.6793212890625 0.7286376953125 -31.0 -60.0 -140.0 164.0 47.0 965.0 2115 2633 1260 
72 7.457592725753784 0.11821174621582031 8.459396227632832 9.654589979331773 2.7189941977362813e-38 108.0 -17.0 1014.0 17.875 0.5 -45.75 4.75 37.0625 -13.875 274.875 7.625 -2.5625 0.0618896484375 -0.0340576171875 0.67462158203125 0.73480224609375 -22.0 -61.0 43.0 130.0 44.0 970.0 2150 2643 1180 
73 7.557548999786377 0.09995627403259277 10.004374509537337 9.659216235589533 2.7189941977362813e-38 88.0 64.0 1010.0 21.1875 1.5625 -45.375 -13.875 14.5 -14.75 276.625 4.4375 -2.3125 0.04107666015625 -0.015380859375 0.66436767578125 0.74609375 22.0 15.0 -16.0 76.0 40.0 976.0 2178 2648 1110 
74 7.641483545303345 0.08393454551696777 11.914045567779302 9.683983425637596 2.7189941977362813e-38 6.0 3.0 911.0 22.0 2.0 -45.75 3.4375 -8.0625 -4.125 277.0 4.3125 -2.0625 0.0386962890625 -0.016357421875 0.66192626953125 0.74835205078125 -68.0 -32.0 -65.0 74.0 35.0 977.0 2188 2669 1070 
75 7.724661827087402 0.08317828178405762 12.022369043353637 9.709162896556066 2.7221510429167123e-38 9.0 244.0 1263.0 22.25 1.5625 -45.375 -6.875 18.375 -21.3125 278.4375 3.4375 -2.125 0.03369140625 -0.0106201171875 0.6524658203125 0.75701904296875 -47.0 204.0 299.0 58.0 36.0 978.0 2197 2681 1098 
76 7.842556476593018 0.11789464950561523 8.482149140723903 9.690717590218249 2.7221510429167123e-38 74.0 -45.0 930.0 23.5 2.75 -44.875 -13.0 -56.0625 9.75 278.625 5.0 -0.6875 0.033447265625 -0.0291748046875 0.65118408203125 0.75762939453125 -11.0 -58.0 -45.0 86.0 12.0 976.0 2165 2666 1123 
77 7.929686546325684 0.08713006973266602 11.47709399370639 9.710345995413764 2.7221510429167123e-38 164.0 -146.0 570.0 20.0625 3.875 -45.75 -9.625 -31.75 1.9375 278.5 9.25 0.25 0.05078125 -0.06268310546875 0.6502685546875 0.75537109375 41.0 -126.0 -359.0 157.0 -4.0 967.0 2146 2646 1173 
78 8.042851686477661 0.11316514015197754 8.836643498669543 9.698052760458129 2.7221510429167123e-38 181.0 31.0 986.0 17.0625 5.375 -47.0 -9.625 27.75 -12.8125 278.5625 9.1875 1.1875 0.04461669921875 -0.0679931640625 0.64984130859375 0.75567626953125 24.0 52.0 18.0 157.0 -20.0 967.0 2128 2633 1207 
79 8.158948183059692 0.11609649658203125 8.613524347768942 9.682620630441871 2.7187072118107876e-38 246.0 29.0 1076.0 17.875 6.0625 -45.75 -55.75 -6.0625 29.4375 277.4375 9.5 4.875 0.0230712890625 -0.09027099609375 0.656494140625 0.74853515625 83.0 111.0 112.0 162.0 -82.0 963.0 2103 2639 1231 
80 8.260547399520874 0.10159921646118164 9.842595591099597 9.684588215623597 2.7187072118107876e-38 103.0 -130.0 975.0 18.5625 9.5 -45.75 -63.375 10.0 11.125 275.125 8.875 10.3125 -0.01348876953125 -0.1177978515625 0.6697998046875 0.7330322265625 -48.0 43.0 22.0 151.0 -174.0 954.0 2086 2637 1259 
81 8.324840307235718 0.06429290771484375 15.553815118072862 9.729916372041043 2.7187072118107876e-38 51.0 -201.0 1084.0 18.25 10.25 -45.75 -67.875 -6.0 15.5 274.6875 9.0625 14.5 -0.04229736328125 -0.14837646484375 0.66937255859375 0.72674560546875 -139.0 -21.0 91.0 156.0 -255.0 933.0 2064 2600 1289 
82 8.444169521331787 0.11932921409606934 8.380177541393358 9.710842468622921 2.720285634401003e-38 14.0 -350.0 1091.0 17.0625 15.75 -43.25 -121.125 5.3125 -64.0 279.875 10.0 24.8125 -0.10528564453125 -0.205078125 0.6259765625 0.7449951171875 -156.0 54.0 215.0 170.0 -405.0 876.0 2054 2555 1237 
83 8.565874576568604 0.1217050552368164 8.216585564619134 9.68961187302942 2.720285634401003e-38 234.0 -412.0 653.0 13.375 31.1875 -35.6875 -86.3125 25.9375 -128.125 293.75 15.625 36.4375 -0.1763916015625 -0.28582763671875 0.5142822265625 0.78912353515625 -29.0 148.0 -105.0 264.0 -561.0 759.0 1997 2539 1260 
84 8.660152673721313 0.09427809715270996 10.606917515318727 9.699598051532359 2.720285634401003e-38 471.0 -420.0 575.0 8.5625 38.875 -28.375 -35.4375 88.3125 -136.625 312.1875 17.875 37.125 -0.2138671875 -0.2742919921875 0.37957763671875 0.8572998046875 169.0 143.0 -167.0 302.0 -563.0 743.0 1953 2506 1309 
85 8.743964672088623 0.08381199836730957 11.931465893671433 9.720990784801113 2.720285634401003e-38 408.0 -505.0 591.0 5.1875 41.1875 -27.5625 -51.8125 35.5 -97.5 324.125 19.75 35.875 -0.22412109375 -0.26190185546875 0.28887939453125 0.8931884765625 76.0 35.0 -156.0 331.0 -541.0 747.0 1899 2495 1386 
86 8.860555171966553 0.11659049987792969 8.577028154498013 9.705938096530442 2.7188507047735345e-38 320.0 -478.0 508.0 -3.375 42.75 -23.0625 36.4375 102.4375 -104.25 341.875 20.25 30.8125 -0.221435546875 -0.21990966796875 0.14923095703125 0.93829345703125 -19.0 -6.0 -281.0 339.0 -471.0 789.0 1890 2471 1440 
87 8.976485013961792 0.11592984199523926 8.62590669312795 9.691989666855395 2.7188507047735345e-38 455.0 -571.0 616.0 -8.1875 40.5 -26.75 78.0625 119.6875 -183.25 3.125 14.4375 18.0625 -0.1571044921875 -0.1234130859375 -0.02703857421875 0.9794921875 210.0 -276.0 -285.0 245.0 -295.0 902.0 1965 2426 1402 
88 9.0764741897583 0.09998917579650879 10.001082537525186 9.695394727095387 2.7188507047735345e-38 220.0 -178.0 849.0 -11.875 34.875 -32.5 98.1875 157.5 -168.1875 18.875 4.25 4.9375 -0.0489501953125 -0.02996826171875 -0.1639404296875 0.98480224609375 146.0 -93.0 -125.0 73.0 -84.0 974.0 2071 2350 1350 
89 9.176097869873047 0.0996236801147461 10.037774140126169 9.699111895068675 2.7188507047735345e-38 -214.0 134.0 1000.0 -10.0 24.25 -40.5625 254.5 123.125 -33.9375 26.0625 -9.5625 -10.6875 0.10882568359375 0.060791015625 -0.22412109375 0.966552734375 -51.0 -44.0 50.0 -163.0 179.0 950.0 2133 2256 1267 
90 9.268004894256592 0.09190702438354492 10.880561161754253 9.7108278455672 2.717631014590186e-38 -338.0 953.0 759.0 -1.0 9.0 -47.5625 211.8125 111.3125 138.25 22.8125 -18.3125 -30.375 0.27947998046875 0.11199951171875 -0.188720703125 0.93475341796875 -29.0 482.0 -43.0 -308.0 470.0 802.0 2207 2222 1234 
91 9.344132423400879 0.07612752914428711 13.135852578436715 9.738731845463269 2.717631014590186e-38 -319.0 918.0 521.0 5.0 -0.0625 -47.5625 165.75 98.75 -48.3125 21.1875 -24.0 -47.125 0.406982421875 0.15386962890625 -0.1656494140625 0.885009765625 79.0 262.0 -87.0 -399.0 656.0 609.0 2193 2154 1129 
92 9.461153030395508 0.1170206069946289 8.545503443217473 9.723973357627225 2.717631014590186e-38 57.0 867.0 237.0 14.6875 -19.0 -41.375 -24.9375 -35.0 -124.75 30.0 -27.0625 -57.0625 0.48760986328125 0.1429443359375 -0.2232666015625 0.83184814453125 504.0 134.0 -237.0 -446.0 732.0 474.0 2163 2108 1062 
93 9.542646646499634 0.08149361610412598 12.27089983002203 9.745723953229852 2.717631014590186e-38 -595.0 888.0 457.0 13.1875 -19.6875 -42.1875 -52.5 -68.375 -8.3125 33.625 -28.5 -52.125 0.45709228515625 0.14605712890625 -0.25384521484375 0.83978271484375 -126.0 208.0 -71.0 -468.0 680.0 528.0 2109 2026 1009 
94 9.613631010055542 0.0709843635559082 14.087609579148893 9.777783222767662 2.719137690699028e-38 -403.0 567.0 647.0 11.375 -15.6875 -43.75 -15.75 -112.9375 -41.3125 36.9375 -25.0625 -44.0625 0.40289306640625 0.11175537109375 -0.287841796875 0.86163330078125 41.0 -71.0 22.0 -416.0 617.0 637.0 2095 2057 1033 
95 9.719789505004883 0.10615849494934082 9.419877330374769 9.773874213128062 2.719137690699028e-38 -293.0 717.0 568.0 2.875 -17.1875 -43.75 71.0 -10.25 36.625 42.6875 -19.1875 -51.625 0.45452880859375 0.02020263671875 -0.32574462890625 0.82879638671875 28.0 -25.0 15.0 -323.0 725.0 574.0 2080 2071 1030 
96 9.792804956436157 0.07301545143127441 13.695731251367352 9.803115698419543 2.719137690699028e-38 -239.0 736.0 514.0 0.5625 -20.1875 -43.0 30.4375 3.5625 -6.375 42.625 -17.9375 -55.3125 0.47918701171875 0.001220703125 -0.31927490234375 0.81756591796875 62.0 -30.0 -15.0 -302.0 767.0 530.0 2057 2094 1044 
97 9.889974594116211 0.09716963768005371 10.291280526255095 9.807911949309524 2.719137690699028e-38 -273.0 890.0 403.0 0.25 -23.875 -42.5625 41.75 31.125 8.875 42.25 -18.875 -59.3125 0.5087890625 0.005126953125 -0.310546875 0.80291748046875 62.0 101.0 -83.0 -317.0 798.0 472.0 2034 2099 1037 
98 9.965134143829346 0.07515954971313477 13.305029152206876 9.834288087399605 2.721935803472592e-38 -289.0 855.0 376.0 1.75 -26.875 -40.1875 27.625 95.875 5.25 40.25 -21.5 -62.9375 0.535888671875 0.0350341796875 -0.29022216796875 0.79205322265625 81.0 41.0 -63.0 -359.0 812.0 415.0 2056 2116 1059 
99 10.070838689804077 0.10570454597473145 9.46033106503337 9.830362996502926 2.721935803472592e-38 -347.0 837.0 232.0 7.75 -28.375 -39.25 42.875 180.375 14.125 31.5 -26.25 -71.0 0.5826416015625 0.1221923828125 -0.2181396484375 0.7733154296875 79.0 -29.0 -73.0 -434.0 831.0 285.0 2069 2152 1086 
100 10.14922547340393 0.07838678359985352 12.757252614226013 9.852968609481604 2.721935803472592e-38 -338.0 843.0 65.0 12.1875 -28.0 -35.1875 82.5625 227.125 105.6875 16.3125 -23.375 -82.9375 0.64239501953125 0.17694091796875 -0.1060791015625 0.738037109375 50.0 -49.0 -44.0 -389.0 893.0 109.0 2081 2180 1126 
101 10.265824317932129 0.11659884452819824 8.57641432079681 9.838469554127796 2.721935803472592e-38 -142.0 901.0 -26.0 23.0 -36.1875 -23.375 18.125 111.9375 -28.6875 0.4375 -22.875 -94.9375 0.677734375 0.28387451171875 -0.00286865234375 0.6783447265625 113.0 -65.0 -37.0 -381.0 900.0 -78.0 2096 2186 1129 
102 10.36572527885437 0.09990096092224121 10.009913726238917 9.84012186856578 2.721433578102978e-38 -390.0 969.0 -203.0 27.875 -36.5625 -17.25 49.75 32.125 -32.875 355.125 -22.8125 -99.6875 0.685546875 0.32818603515625 0.02734375 0.6492919921875 -13.0 92.0 -85.0 -381.0 890.0 -152.0 2086 2181 1157 
103 10.46618914604187 0.1004638671875 9.953827460510327 9.841213316783291 2.721433578102978e-38 -366.0 866.0 -233.0 29.75 -35.375 -13.5625 41.0625 9.5 31.875 355.125 -23.0625 -104.5625 0.703857421875 0.34674072265625 0.0262451171875 0.619384765625 -6.0 20.0 -51.0 -385.0 872.0 -226.0 2070 2193 1155 
104 10.58605432510376 0.11986517906188965 8.342706429226396 9.82424582437429 2.721433578102978e-38 -276.0 1057.0 -180.0 27.875 -37.6875 -10.75 33.6875 -113.5 46.0625 359.3125 -20.25 -105.0 0.7349853515625 0.28564453125 0.00335693359375 0.61492919921875 181.0 143.0 -24.0 -339.0 888.0 -238.0 2059 2202 1166 
105 10.68501591682434 0.09896159172058105 10.104930434258868 9.826845445748921 2.721433578102978e-38 -318.0 925.0 -292.0 24.875 -39.5625 -12.5 2.875 13.5625 -10.6875 0.625 -19.25 -106.875 0.7510986328125 0.27001953125 -0.00335693359375 0.6024169921875 -16.0 47.0 -43.0 -323.0 885.0 -268.0 2054 2200 1157 
106 10.750869512557983 0.06585359573364258 15.185199666920097 9.859667618157067 2.723298986618687e-38 -383.0 895.0 -312.0 24.5 -40.5625 -11.5625 -16.25 -6.5625 10.9375 0.0625 -19.4375 -105.875 0.74462890625 0.27313232421875 -0.0006103515625 0.60906982421875 -56.0 6.0 -59.0 -327.0 889.0 -253.0 2056 2197 1166 
107 10.86710238456726 0.11623287200927734 8.60341814422501 9.846230965114888 2.723298986618687e-38 -472.0 1076.0 -206.0 23.375 -40.1875 -14.5 0.375 10.9375 -36.125 358.75 -18.6875 -104.3125 0.739013671875 0.26678466796875 0.0064697265625 0.61859130859375 -36.0 59.0 44.0 -315.0 899.0 -231.0 2070 2205 1221 
108 10.967216968536377 0.10011458396911621 9.98855471754729 9.84753017195146 2.723298986618687e-38 -259.0 800.0 -257.0 24.875 -40.1875 -12.0 10.0625 3.1875 10.1875 358.25 -18.5625 -105.3125 0.74267578125 0.27166748046875 0.009033203125 0.61199951171875 52.0 -95.0 245.0 -314.0 896.0 -244.0 2070 2179 1211 
109 11.067410469055176 0.10019350051879883 9.980687318259479 9.848735646406844 2.723298986618687e-38 -130.0 834.0 -313.0 24.0625 -39.5 -12.75 8.6875 -3.125 7.4375 356.75 -17.5 -106.0625 0.74798583984375 0.26934814453125 0.016845703125 0.6063232421875 164.0 -63.0 -54.0 -295.0 898.0 -259.0 2078 2169 1222 
110 11.167293787002563 0.0998833179473877 10.011681835867103 9.850193081516961 2.7233707331000606e-38 -384.0 846.0 -455.0 24.0625 -41.0 -11.5625 6.125 3.9375 -16.1875 357.625 -18.5625 -107.6875 0.7510986328125 0.2830810546875 0.0123291015625 0.5963134765625 -71.0 -38.0 -172.0 -312.0 885.0 -282.0 2080 2186 1235 
111 11.249234199523926 0.0819404125213623 12.20399030501945 9.867338347769271 2.7233707331000606e-38 -259.0 892.0 -252.0 24.875 -40.5625 -12.0 -13.125 34.25 -35.75 357.0625 -19.75 -107.3125 0.7412109375 0.30126953125 0.01531982421875 0.59967041015625 72.0 12.0 22.0 -332.0 880.0 -274.0 2092 2182 1229 
112 11.367682218551636 0.11844801902770996 8.442521945141674 9.852492165660662 2.7233707331000606e-38 -269.0 924.0 -261.0 27.5 -39.0625 -10.0 3.0 -0.5625 -13.8125 357.3125 -21.375 -107.4375 0.732666015625 0.3206787109375 0.01385498046875 0.60015869140625 88.0 53.0 12.0 -357.0 871.0 -273.0 2077 2182 1239 
113 11.467678546905518 0.09999632835388184 10.000367178093297 9.85378161218971 2.7233707331000606e-38 -310.0 916.0 -259.0 28.5625 -37.5625 -10.75 3.375 1.8125 -5.6875 358.3125 -22.3125 -106.9375 0.7271728515625 0.32550048828125 0.00885009765625 0.60430908203125 62.0 48.0 4.0 -373.0 867.0 -264.0 2073 2178 1248 
114 11.590913534164429 0.12323498725891113 8.114578678042504 9.83529034739004 2.7230120006931934e-38 -373.0 851.0 -314.0 30.5 -38.0 -10.0 -6.0625 -1.0 -5.9375 358.4375 -22.8125 -107.375 0.726318359375 0.3323974609375 0.0079345703125 0.6015625 6.0 -10.0 -43.0 -380.0 862.0 -270.0 2066 2187 1285 
115 11.688920736312866 0.0980072021484375 10.20333177642846 9.838376236288468 2.7230120006931934e-38 -441.0 895.0 -318.0 29.375 -36.875 -10.375 -6.3125 10.25 -17.0 358.5625 -24.0 -107.25 0.7181396484375 0.346435546875 0.00750732421875 0.60345458984375 -42.0 40.0 -52.0 -399.0 855.0 -266.0 2054 2187 1311 
116 11.784778594970703 0.09585785865783691 10.432112859619407 9.84320571364017 2.7230120006931934e-38 -416.0 902.0 -268.0 30.5 -36.875 -10.375 -10.625 -3.0625 -1.0 358.3125 -24.625 -106.75 0.7113037109375 0.353759765625 0.0089111328125 0.6072998046875 -7.0 48.0 -11.0 -408.0 853.0 -257.0 2050 2196 1324 
117 11.88679838180542 0.1020197868347168 9.8020200887119 9.842852233372323 2.7240164514324215e-38 -336.0 875.0 -246.0 31.1875 -36.5 -11.5625 -5.125 3.8125 0.4375 357.75 -24.5625 -106.0 0.70751953125 0.35345458984375 0.01171875 0.61187744140625 71.0 18.0 0.0 -407.0 857.0 -246.0 2039 2192 1330 
118 11.97381591796875 0.08701753616333008 11.49193650028221 9.85483665428002 2.7240164514324215e-38 -358.0 855.0 -249.0 30.5 -35.6875 -11.5625 -5.8125 -9.8125 3.6875 357.3125 -24.375 -105.6875 0.7064208984375 0.35382080078125 0.0140380859375 0.61334228515625 53.0 -14.0 -11.0 -405.0 858.0 -243.0 2031 2192 1348 
119 12.076343059539795 0.10252714157104492 9.753514871055508 9.853976440822876 2.7240164514324215e-38 -392.0 883.0 -208.0 30.5 -36.0625 -12.0 2.6875 -11.625 1.25 357.9375 -24.4375 -105.0 0.705078125 0.34747314453125 0.010986328125 0.6180419921875 13.0 21.0 23.0 -406.0 862.0 -231.0 2029 2199 1359 
120 12.15476131439209 0.07841825485229492 12.75213280228634 9.872674328693858 2.7240164514324215e-38 -334.0 860.0 -216.0 30.75 -36.0625 -12.5 3.375 -17.25 -1.4375 359.375 -24.6875 -104.6875 0.706787109375 0.3404541015625 0.00311279296875 0.6201171875 75.0 -1.0 10.0 -409.0 861.0 -226.0 2035 2218 1354 
121 12.271006107330322 0.11624479293823242 8.602535861811528 9.86064214634514 2.724088197913795e-38 -366.0 807.0 -270.0 30.375 -35.0 -14.0625 -2.25 -13.4375 -35.6875 3.8125 -27.125 -104.0 0.70123291015625 0.34075927734375 -0.02105712890625 0.6258544921875 80.0 -39.0 -59.0 -447.0 846.0 -211.0 2043 2212 1299 
122 12.386549711227417 0.11554360389709473 8.65474129481558 9.849393321323108 2.724088197913795e-38 -384.0 808.0 -311.0 31.875 -33.875 -14.875 1.6875 -28.8125 -15.125 7.3125 -29.3125 -103.625 0.695556640625 0.34515380859375 -0.04052734375 0.62884521484375 96.0 -21.0 -109.0 -481.0 830.0 -201.0 2049 2199 1281 
123 12.493393659591675 0.10684394836425781 9.359444454362068 9.845203261130575 2.724088197913795e-38 -581.0 892.0 -31.0 30.75 -33.0625 -15.6875 -2.75 -82.25 12.625 12.75 -29.75 -98.8125 0.68951416015625 0.302490234375 -0.07318115234375 0.65399169921875 -94.0 51.0 100.0 -486.0 841.0 -131.0 2040 2187 1256 
124 12.567795991897583 0.0744023323059082 13.440438881518654 9.866487336358928 2.724088197913795e-38 -439.0 822.0 -30.0 28.5625 -33.875 -19.75 -11.6875 -6.125 -58.375 16.625 -31.3125 -96.625 0.6815185546875 0.2918701171875 -0.09716796875 0.66400146484375 70.0 -9.0 66.0 -509.0 831.0 -97.0 2033 2184 1237 
125 12.671631813049316 0.1038358211517334 9.63058787331896 9.864554292942312 2.723298986618687e-38 -446.0 813.0 -68.0 29.75 -32.6875 -20.1875 16.9375 -15.625 1.0625 20.0625 -31.9375 -95.5 0.68182373046875 0.27593994140625 -0.1182861328125 0.6671142578125 72.0 -14.0 12.0 -519.0 828.0 -79.0 2034 2185 1205 
126 12.754959344863892 0.0833275318145752 12.00083547686559 9.878510514479773 2.723298986618687e-38 -512.0 815.0 -90.0 28.5625 -33.0625 -21.5 -1.25 -39.0625 3.0 22.125 -32.25 -94.625 0.68109130859375 0.2652587890625 -0.13128662109375 0.669677734375 -16.0 0.0 -21.0 -523.0 826.0 -67.0 2023 2206 1221 
127 12.87886357307434 0.12390422821044922 8.07074959783872 9.861118512468531 2.723298986618687e-38 -545.0 820.0 -41.0 27.0 -33.875 -21.75 -1.0 -20.5625 -17.6875 25.75 -33.8125 -92.6875 0.67291259765625 0.25836181640625 -0.15472412109375 0.6756591796875 27.0 9.0 -7.0 -546.0 813.0 -38.0 2049 2201 1213 
128 12.955608367919922 0.07674479484558105 13.030199663861369 9.879891114719682 2.723298986618687e-38 -462.0 894.0 127.0 26.6875 -33.5 -22.5625 -16.375 6.5625 3.25 24.0625 -34.125 -87.6875 0.64398193359375 0.2623291015625 -0.14990234375 0.702880859375 31.0 111.0 86.0 -550.0 810.0 32.0 2070 2194 1221 
129 13.071999311447144 0.11639094352722168 8.591733769785263 9.868421572439555 2.7230120006931934e-38 -507.0 822.0 30.0 25.875 -31.25 -24.25 3.0 -6.5625 8.0 25.0625 -33.4375 -88.8125 0.65496826171875 0.25 -0.15496826171875 0.696044921875 23.0 -4.0 -4.0 -540.0 818.0 16.0 2062 2176 1198 
130 13.172227621078491 0.10022830963134766 9.977221043417034 9.869249434467038 2.7230120006931934e-38 -537.0 877.0 18.0 25.5 -32.0 -25.0625 21.5 -37.6875 25.9375 27.25 -32.125 -89.3125 0.6671142578125 0.2237548828125 -0.1676025390625 0.69049072265625 -11.0 35.0 108.0 -529.0 825.0 8.0 2061 2172 1209 
131 13.272252082824707 0.10002446174621582 9.997554423609108 9.870216386978052 2.7230120006931934e-38 -529.0 863.0 4.0 23.6875 -33.0625 -24.6875 7.125 -12.5625 6.0625 28.0625 -31.75 -89.3125 0.66943359375 0.2169189453125 -0.171142578125 0.689453125 4.0 17.0 -6.0 -518.0 832.0 9.0 2063 2175 1209 
132 13.388065814971924 0.1158137321472168 8.634554654786951 9.859527270353265 2.723083747174567e-38 -501.0 845.0 -14.0 22.875 -33.875 -23.875 0.9375 0.0 0.4375 27.9375 -31.3125 -89.3125 0.671630859375 0.21002197265625 -0.1717529296875 0.68939208984375 15.0 22.0 -22.0 -510.0 837.0 9.0 2078 2170 1197 
133 13.490560531616211 0.10249471664428711 9.756600464300503 9.858745282548032 2.723083747174567e-38 -541.0 857.0 -25.0 22.5 -33.875 -25.5 -5.0625 17.1875 -2.8125 27.5625 -31.75 -89.625 0.67083740234375 0.2176513671875 -0.16900634765625 0.6884765625 -25.0 40.0 -23.0 -516.0 833.0 5.0 2089 2163 1181 
134 13.578118324279785 0.08755779266357422 11.421027981396564 9.868819581604852 2.723083747174567e-38 -492.0 907.0 113.0 23.6875 -33.5 -23.875 -10.75 -38.1875 -12.6875 27.375 -32.25 -88.8125 0.66448974609375 0.22320556640625 -0.16888427734375 0.69287109375 43.0 78.0 96.0 -523.0 829.0 16.0 2113 2151 1163 
135 13.658011674880981 0.07989335060119629 12.516686213245716 9.884308434754388 2.723083747174567e-38 -564.0 941.0 -54.0 23.6875 -33.5 -25.0625 102.0 -75.75 5.1875 35.0625 -33.5625 -90.25 0.68084716796875 0.19586181640625 -0.212890625 0.6728515625 -21.0 124.0 -51.0 -542.0 816.0 -3.0 2135 2137 1137 
136 13.774669885635376 0.11665821075439453 8.572049867157164 9.873194866312167 2.7228685077304466e-38 -574.0 776.0 132.0 20.6875 -34.5625 -26.75 -61.0625 -75.3125 -15.6875 42.125 -33.9375 -81.4375 0.644775390625 0.15130615234375 -0.26959228515625 0.6990966796875 48.0 19.0 -7.0 -548.0 804.0 120.0 2128 2188 1194 
137 13.881061315536499 0.10639142990112305 9.399253313254363 9.869562340068446 2.7228685077304466e-38 -521.0 834.0 352.0 15.75 -31.6875 -32.5 -113.125 -163.375 20.3125 45.625 -30.0625 -68.1875 0.56390380859375 0.08453369140625 -0.32110595703125 0.756103515625 40.0 32.0 -9.0 -502.0 791.0 285.0 2122 2235 1252 
138 13.958523035049438 0.07746171951293945 12.909602398291156 9.88643280191508 2.7228685077304466e-38 -413.0 761.0 496.0 11.0 -30.1875 -35.75 -38.75 -87.6875 17.3125 47.625 -24.9375 -57.875 0.50701904296875 0.04400634765625 -0.3475341796875 0.78753662109375 0.0 8.0 23.0 -413.0 753.0 472.0 2100 2226 1256 
139 14.07482624053955 0.1163032054901123 8.59821529239808 9.875787993718884 2.7228685077304466e-38 -169.0 713.0 548.0 0.1875 -22.5625 -41.1875 -14.8125 -44.9375 -40.0 54.875 -22.0 -48.3125 0.43798828125 0.00775146484375 -0.41436767578125 0.7977294921875 199.0 34.0 -55.0 -368.0 679.0 604.0 2101 2230 1289 
140 14.174413204193115 0.09958696365356445 10.041474941225479 9.876952081415602 2.723298986618687e-38 -288.0 286.0 686.0 -2.0 -20.75 -42.375 10.9375 -74.75 -223.5 67.75 -25.375 -41.875 0.40478515625 0.01104736328125 -0.509765625 0.759033203125 218.0 -127.0 45.0 -421.0 591.0 659.0 2105 2242 1286 
141 14.274919271469116 0.10050606727600098 9.949648086954666 9.877463915457145 2.723298986618687e-38 -337.0 505.0 625.0 0.375 -22.1875 -42.75 40.0 -59.8125 -69.3125 86.8125 -30.5625 -37.0 0.39520263671875 0.00732421875 -0.63128662109375 0.667236328125 161.0 -3.0 -48.0 -498.0 508.0 674.0 2111 2244 1268 
142 14.390796184539795 0.11587691307067871 8.629846735648313 9.867417909271227 2.723298986618687e-38 -553.0 457.0 674.0 -0.875 -25.5625 -40.0 31.8125 -53.75 -50.6875 97.9375 -29.4375 -37.875 0.3931884765625 -0.04412841796875 -0.69287109375 0.60284423828125 -71.0 -4.0 -60.0 -483.0 525.0 672.0 2032 2243 1392 
143 14.497162580490112 0.10636639595031738 9.401465482266499 9.863999193362535 2.723298986618687e-38 -440.0 550.0 772.0 -2.5 -29.6875 -36.75 194.4375 2.25 -59.5625 103.6875 -30.0625 -42.75 0.41876220703125 -0.08441162109375 -0.71099853515625 0.55859375 51.0 -26.0 150.0 -491.0 576.0 622.0 2011 2227 1340 
144 14.577316761016846 0.0801541805267334 12.475955632363746 9.878361179959379 2.7217205640284717e-38 -492.0 701.0 208.0 -0.25 -37.375 -30.1875 254.1875 28.6875 -25.3125 113.8125 -33.5 -61.4375 0.5157470703125 -0.18682861328125 -0.70062255859375 0.45623779296875 49.0 -16.0 -182.0 -541.0 718.0 390.0 2000 2248 1270 
145 14.677928924560547 0.10061216354370117 9.939156109744596 9.87877790833091 2.7217205640284717e-38 -506.0 711.0 270.0 1.875 -46.0 -17.1875 128.4375 -39.75 -53.375 125.75 -36.0 -70.3125 0.5457763671875 -0.2572021484375 -0.7099609375 0.36322021484375 70.0 -35.0 3.0 -576.0 746.0 266.0 2009 2277 1217 
146 14.793740510940552 0.11581158638000488 8.634714636571562 9.8690388608633 2.7217205640284717e-38 -597.0 714.0 199.0 5.75 -46.5625 -5.6875 -0.625 -118.25 -51.8125 147.375 -41.6875 -74.4375 0.54248046875 -0.3251953125 -0.743408203125 0.21746826171875 54.0 9.0 3.0 -652.0 705.0 196.0 2031 2286 1197 
147 14.898826599121094 0.10508608818054199 9.516007468866489 9.866548819936718 2.7228685077304466e-38 -734.0 541.0 48.0 9.75 -46.5 -2.875 33.0 -116.25 -61.0625 158.4375 -44.75 -68.0 0.5120849609375 -0.32379150390625 -0.78155517578125 0.1488037109375 -44.0 -103.0 -212.0 -690.0 645.0 260.0 2052 2263 1219 
148 14.99385666847229 0.09503006935119629 10.522985059648507 9.870709269296995 2.7228685077304466e-38 -536.0 627.0 428.0 14.25 -45.375 -2.875 16.5 -158.5625 -6.0625 168.1875 -41.1875 -57.3125 0.42950439453125 -0.33551025390625 -0.833984375 0.086181640625 109.0 5.0 30.0 -645.0 621.0 398.0 2077 2236 1256 
149 15.093791246414185 0.09993457794189453 10.006546488658161 9.871608634801927 2.7228685077304466e-38 -575.0 607.0 452.0 15.875 -44.5625 -5.25 -3.0 -160.375 -22.75 178.3125 -34.75 -48.375 0.32965087890625 -0.344482421875 -0.87890625 0.01287841796875 -15.0 4.0 -82.0 -559.0 602.0 534.0 2110 2234 1240 
150 15.193943738937378 0.10015249252319336 9.984773966243722 9.87235457609313 2.7228685077304466e-38 -469.0 592.0 702.0 15.875 -43.5 -9.6875 -47.0 -55.875 25.3125 180.875 -26.8125 -41.4375 0.244384765625 -0.32525634765625 -0.9134521484375 -0.00738525390625 -27.0 12.0 46.0 -442.0 579.0 655.0 2136 2225 1259 
151 15.297625064849854 0.10368132591247559 9.644938384026528 9.870813237994735 2.721935803472592e-38 -315.0 624.0 852.0 13.75 -43.5 -14.5625 -26.25 26.8125 20.4375 178.1875 -23.5 -38.5 0.22039794921875 -0.30487060546875 -0.9263916015625 0.0142822265625 76.0 64.0 149.0 -391.0 560.0 703.0 2156 2200 1258 
152 15.410438299179077 0.11281323432922363 8.864208228280143 9.86344431281342 2.721935803472592e-38 -405.0 576.0 673.0 12.6875 -42.75 -16.5625 -17.3125 41.375 -1.875 174.9375 -26.8125 -38.5 0.25830078125 -0.29058837890625 -0.92047119140625 0.04058837890625 38.0 31.0 -10.0 -443.0 545.0 684.0 2166 2197 1244 
153 15.518843412399292 0.10840511322021484 9.22465712450845 9.858982137660826 2.721935803472592e-38 -528.0 551.0 595.0 13.0 -41.6875 -17.375 -36.375 33.0625 3.9375 171.375 -30.5625 -37.625 0.29852294921875 -0.2652587890625 -0.9141845703125 0.0687255859375 -23.0 10.0 -44.0 -499.0 515.0 667.0 2174 2203 1220 
154 15.633130311965942 0.11428689956665039 8.749909252869488 9.850874196457315 2.721935803472592e-38 -574.0 505.0 643.0 13.75 -41.6875 -18.6875 -35.9375 17.6875 12.75 169.0625 -31.625 -35.5625 0.3095703125 -0.24078369140625 -0.91571044921875 0.08746337890625 -59.0 19.0 -35.0 -514.0 485.0 678.0 2187 2176 1181 
155 15.72909951210022 0.09596920013427734 10.420009738549751 9.854346708199044 2.7240164514324215e-38 -614.0 438.0 747.0 14.1875 -40.5625 -21.0625 -81.5 70.5625 32.9375 163.5 -34.5 -33.0 0.3399658203125 -0.197509765625 -0.90997314453125 0.13177490234375 -58.0 -1.0 69.0 -555.0 440.0 677.0 2178 2174 1159 
156 15.846623420715332 0.1175239086151123 8.508906926121506 9.844368472596543 2.7240164514324215e-38 -705.0 432.0 423.0 15.25 -39.75 -21.875 -120.4375 265.875 102.125 145.875 -48.4375 -43.0 0.492431640625 -0.12359619140625 -0.82366943359375 0.252685546875 -36.0 40.0 -23.0 -734.0 443.0 475.0 2122 2205 1138 
157 15.935273170471191 0.08864974975585938 11.280347691380868 9.852356989457098 2.7240164514324215e-38 -682.0 409.0 521.0 17.1875 -39.0625 -21.5 -160.6875 211.3125 190.375 125.25 -49.9375 -53.5625 0.55224609375 -0.06463623046875 -0.73809814453125 0.3822021484375 48.0 -79.0 146.0 -751.0 507.0 374.0 2122 2197 1195 
158 16.0471453666687 0.11187219619750977 8.938771508825171 9.845987955476465 2.7228685077304466e-38 -549.0 795.0 39.0 13.0625 -39.0625 -23.875 -70.4375 151.9375 141.75 80.125 -38.5 -79.25 0.65350341796875 -0.01226806640625 -0.48736572265625 0.57904052734375 137.0 -25.0 -53.0 -610.0 753.0 142.0 2130 2217 1209 
159 16.14498782157898 0.09784245491027832 10.220512158213952 9.84825766096179 2.7228685077304466e-38 -487.0 820.0 131.0 9.1875 -38.6875 -26.0 -100.4375 124.625 70.625 51.6875 -31.875 -77.5 0.63482666015625 0.07403564453125 -0.33563232421875 0.6920166015625 0.0 7.0 -46.0 -518.0 812.0 179.0 2132 2228 1214 
160 16.259512662887573 0.11452484130859375 8.73173006461928 9.840393332648947 2.7228685077304466e-38 -274.0 935.0 96.0 12.5625 -34.5625 -30.25 -63.625 124.9375 72.875 33.1875 -26.4375 -77.5625 0.62481689453125 0.11517333984375 -0.2205810546875 0.74005126953125 104.0 -26.0 -60.0 -437.0 857.0 188.0 2135 2234 1190 
161 16.384618282318115 0.125105619430542 7.9932460632209645 9.826289341982859 2.7228685077304466e-38 -341.0 1000.0 112.0 15.5625 -30.5 -30.6875 -6.625 170.75 67.8125 7.75 -21.625 -81.0625 0.6220703125 0.202392578125 -0.05145263671875 0.75457763671875 -19.0 138.0 -80.0 -362.0 900.0 141.0 2139 2245 1202 
162 16.4841046333313 0.0994863510131836 10.051630096147393 9.827649338771588 2.7203573808823765e-38 -350.0 1040.0 -33.0 20.5 -33.0625 -27.875 114.375 199.125 43.375 357.4375 -21.0 -89.25 0.650146484375 0.2669677734375 0.01568603515625 0.711181640625 1.0 125.0 -45.0 -352.0 915.0 11.0 2163 2280 1228 
163 16.548444509506226 0.06433987617492676 15.542460748311168 9.849868361123907 2.7203573808823765e-38 -175.0 758.0 -391.0 23.75 -35.0 -20.0625 -328.125 450.375 -256.8125 335.8125 -26.375 -96.1875 0.57879638671875 0.4620361328125 0.1407470703125 0.6571044921875 -800.0 -643.0 102.0 -435.0 873.0 -94.0 2108 2310 1368 
164 16.669604539871216 0.12116003036499023 8.253546957586062 9.8382657853542 2.7203573808823765e-38 -362.0 872.0 -311.0 38.25 -25.5625 -7.375 24.25 87.625 82.875 318.0625 -22.25 -109.875 0.5782470703125 0.5684814453125 0.20928955078125 0.5465087890625 9.0 19.0 -2.0 -371.0 853.0 -308.0 2069 2313 1405 
165 16.777279138565063 0.10767459869384766 9.287241486205216 9.83472937639352 2.7203573808823765e-38 -161.0 964.0 -323.0 34.0625 -31.875 4.75 42.9375 -14.375 32.125 310.75 -15.8125 -114.75 0.62261962890625 0.560546875 0.2275390625 0.49639892578125 106.0 108.0 72.0 -267.0 856.0 -395.0 2058 2343 1428 
166 16.846900939941406 0.06962180137634277 14.363316952896255 9.853444297665428 2.7235142260628074e-38 -146.0 727.0 -486.0 31.875 -33.375 7.25 171.0625 146.3125 28.5625 307.8125 -13.4375 -119.875 0.6448974609375 0.5714111328125 0.22314453125 0.45587158203125 89.0 63.0 34.0 -228.0 826.0 -475.0 2060 2334 1395 
167 16.93380045890808 0.0868995189666748 11.507543561702466 9.861932671596417 2.7235142260628074e-38 39.0 1016.0 -741.0 26.375 -30.875 22.875 124.8125 99.0625 -12.6875 94.125 1.5625 -137.625 0.68267822265625 0.63507080078125 0.2568359375 0.2542724609375 12.0 356.0 -16.0 27.0 660.0 -724.0 2078 2388 1507 
168 17.049514055252075 0.11571359634399414 8.642026793698411 9.853653274548776 2.7235142260628074e-38 136.0 665.0 -725.0 19.25 -28.5625 29.375 36.875 1.0 25.1875 96.9375 5.0 -142.0625 0.7088623046875 0.62591552734375 0.24786376953125 0.21051025390625 50.0 68.0 47.0 86.0 596.0 -773.0 2052 2352 1578 
169 17.171504974365234 0.12199091911315918 8.197331467536504 9.841886325764367 2.7235142260628074e-38 97.0 656.0 -771.0 19.6875 -26.75 29.875 12.4375 -23.0 3.8125 100.4375 3.4375 -142.9375 0.72882080078125 0.60614013671875 0.2269287109375 0.223388671875 38.0 67.0 9.0 58.0 589.0 -781.0 2019 2312 1610 
170 17.263041973114014 0.0915369987487793 10.924544322722134 9.847627102150547 2.724590423283409e-38 -204.0 570.0 -679.0 20.25 -28.1875 28.25 -27.75 -66.75 27.1875 103.125 -0.125 -140.75 0.73797607421875 0.5853271484375 0.20758056640625 0.26397705078125 -201.0 -49.0 80.0 -2.0 620.0 -759.0 2051 2287 1404 
171 17.336811542510986 0.07376956939697266 13.555725052680568 9.863405366130728 2.724590423283409e-38 -60.0 686.0 -592.0 23.6875 -30.375 26.1875 -26.5625 4.3125 6.375 105.5625 -1.25 -138.75 0.74542236328125 0.56610107421875 0.2032470703125 0.287353515625 -38.0 40.0 144.0 -21.0 645.0 -737.0 2106 2253 1241 
172 17.450159311294556 0.11334776878356934 8.822405687662359 9.856643537269806 2.724590423283409e-38 53.0 695.0 -644.0 21.0625 -31.5 25.375 -148.0 88.6875 25.8125 257.8125 8.875 -130.375 0.6990966796875 0.57562255859375 0.33001708984375 0.26654052734375 -97.0 -42.0 -16.0 151.0 738.0 -627.0 2094 2252 1037 
173 17.568233251571655 0.11807394027709961 8.46926932101333 9.847319165376144 2.7250209021716495e-38 181.0 957.0 -527.0 16.5625 -37.5 20.875 27.5 10.6875 -28.75 264.75 7.4375 -127.625 0.70440673828125 0.55377197265625 0.327880859375 0.29937744140625 53.0 187.0 66.0 127.0 769.0 -594.0 2096 2251 952 
174 17.632997035980225 0.06476378440856934 15.440728319571196 9.867863054984474 2.7250209021716495e-38 -8.0 734.0 -514.0 19.5625 -34.875 22.5 4.0625 34.125 -17.875 261.875 7.375 -128.875 0.69403076171875 0.5743408203125 0.32794189453125 0.284423828125 -134.0 -22.0 96.0 125.0 756.0 -611.0 2094 2251 951 
175 17.71502447128296 0.08202743530273438 12.191043110263685 9.878620279846903 2.7250209021716495e-38 92.0 553.0 -937.0 19.1875 -34.0625 23.0 86.875 -133.875 31.4375 269.25 5.125 -133.0 0.7188720703125 0.56829833984375 0.2847900390625 0.28143310546875 -9.0 -304.0 -566.0 87.0 714.0 -666.0 2091 2256 1078 
176 17.836207628250122 0.12118315696716309 8.251971850105946 9.867568469052804 2.7250209021716495e-38 113.0 985.0 -586.0 22.5625 -34.875 19.6875 55.1875 -99.8125 15.4375 286.75 1.75 -129.75 0.74761962890625 0.510498046875 0.2532958984375 0.3409423828125 83.0 231.0 40.0 29.0 753.0 -626.0 2071 2197 1074 
177 17.914597272872925 0.07838964462280273 12.756787006904103 9.880210942169558 2.7250209021716495e-38 -5.0 805.0 -535.0 22.875 -36.0 18.5 7.4375 -5.0625 -6.75 289.625 0.5625 -130.4375 0.7489013671875 0.51336669921875 0.24139404296875 0.34246826171875 -14.0 59.0 101.0 9.0 746.0 -636.0 2076 2193 1140 
178 18.010178565979004 0.0955812931060791 10.46229829607106 9.883300120979351 2.728106000870707e-38 -63.0 743.0 -612.0 24.0625 -34.875 18.0 -12.4375 -16.5 -32.3125 295.125 -2.375 -128.9375 0.73443603515625 0.52410888671875 0.23126220703125 0.3638916015625 -22.0 -18.0 3.0 -40.0 761.0 -616.0 2102 2202 1159 
179 18.100508213043213 0.09032964706420898 11.070562462058225 9.889225092089553 2.728106000870707e-38 -47.0 784.0 -566.0 26.25 -33.6875 17.1875 -34.3125 68.9375 -25.625 295.125 -3.8125 -126.8125 0.71185302734375 0.54058837890625 0.24041748046875 0.37841796875 18.0 0.0 19.0 -65.0 783.0 -586.0 2225 2241 1203 
180 18.1911723613739 0.09066414833068848 11.0297181235586 9.894909268310917 2.728106000870707e-38 -8.0 790.0 -507.0 27.375 -33.0 16.375 10.9375 9.5625 -15.625 291.4375 -3.4375 -126.9375 0.6990966796875 0.55804443359375 0.251708984375 0.36944580078125 51.0 8.0 81.0 -59.0 782.0 -588.0 2251 2220 1199 
181 18.298609972000122 0.1074376106262207 9.307727472449438 9.891461716324885 2.728106000870707e-38 -32.0 836.0 -557.0 28.1875 -33.0 17.6875 -25.5 2.375 -5.9375 291.375 -4.0 -125.6875 0.68896484375 0.5625 0.257568359375 0.3775634765625 36.0 42.0 13.0 -68.0 794.0 -570.0 2190 2227 943 
182 18.401232481002808 0.10262250900268555 9.74445089793927 9.890641846294503 2.724088197913795e-38 19.0 1039.0 -582.0 28.5625 -33.0 14.75 -60.5625 14.8125 -23.75 285.0625 -4.1875 -116.5625 0.63043212890625 0.57080078125 0.32000732421875 0.41754150390625 91.0 165.0 -144.0 -71.0 874.0 -437.0 2114 2241 702 
183 18.497105598449707 0.09587311744689941 10.430452525483624 9.893439761480181 2.724088197913795e-38 -53.0 1135.0 -382.0 29.25 -34.875 11.875 4.8125 -30.375 -0.375 288.25 -5.4375 -114.4375 0.62579345703125 0.56097412109375 0.3173828125 0.43927001953125 40.0 247.0 22.0 -93.0 888.0 -404.0 2131 2179 826 
184 18.590433359146118 0.09332776069641113 10.714925468456617 9.897563786993471 2.724088197913795e-38 57.0 731.0 -580.0 30.0625 -34.5 10.75 45.75 -21.5 11.4375 291.8125 -6.1875 -117.0 0.64208984375 0.55999755859375 0.29345703125 0.43359375 126.0 -79.0 215.0 -107.0 866.0 -446.0 2148 2140 834 
185 18.695302486419678 0.10486912727355957 9.535694879880324 9.895533925401022 2.722796761249073e-38 -89.0 879.0 -430.0 30.375 -34.0625 12.75 14.9375 -12.9375 -8.8125 292.625 -6.9375 -117.8125 0.640625 0.567138671875 0.28704833984375 0.4307861328125 29.0 18.0 24.0 -118.0 860.0 -455.0 2176 2124 822 
186 18.795411348342896 0.10010886192321777 9.989125645709441 9.896032417316516 2.722796761249073e-38 -168.0 849.0 -464.0 30.375 -34.875 12.75 2.75 -0.125 -11.5625 291.375 -7.3125 -116.375 0.62615966796875 0.5733642578125 0.29779052734375 0.4365234375 -53.0 -3.0 74.0 -125.0 870.0 -432.0 2221 2108 823 
187 18.90199112892151 0.10657978057861328 9.382642697996546 9.893137644841845 2.722796761249073e-38 -108.0 892.0 -488.0 30.0625 -34.0625 11.5625 22.9375 -12.75 14.75 289.4375 -6.1875 -116.9375 0.63031005859375 0.57275390625 0.302734375 0.4278564453125 -4.0 -1.0 -27.0 -106.0 868.0 -441.0 2154 2124 868 
188 18.97945261001587 0.07746148109436035 12.909642132737453 9.905449006510773 2.722796761249073e-38 -78.0 831.0 -393.0 28.875 -33.6875 12.0 31.1875 -22.5625 26.9375 292.1875 -6.0625 -119.0625 0.65155029296875 0.5633544921875 0.283203125 0.42181396484375 25.0 -20.0 81.0 -104.0 851.0 -474.0 2146 2137 881 
189 19.087984323501587 0.10853171348571777 9.213896730116538 9.901516933210106 2.7260253529108775e-38 -21.0 830.0 -546.0 28.1875 -36.0 14.0625 40.5 38.0 23.0625 285.0 -2.1875 -120.9375 0.66546630859375 0.56048583984375 0.300048828125 0.39111328125 16.0 -9.0 -42.0 -38.0 840.0 -504.0 2143 2157 917 
190 19.158239126205444 0.07025480270385742 14.233902331421591 9.91740413867734 2.7260253529108775e-38 52.0 843.0 -632.0 27.75 -35.5625 16.0625 14.625 49.5625 15.3125 277.0625 1.375 -123.5625 0.67706298828125 0.56396484375 0.31304931640625 0.354248046875 -1.0 3.0 -96.0 23.0 816.0 -542.0 2172 2167 936 
191 19.279602766036987 0.12136363983154297 8.23970013908643 9.906843119012091 2.7260253529108775e-38 149.0 750.0 -585.0 24.75 -36.25 17.6875 0.4375 10.9375 8.875 271.3125 4.5 -125.0625 0.69140625 0.55548095703125 0.32269287109375 0.33050537109375 71.0 -49.0 -22.0 77.0 799.0 -562.0 2126 2192 1020 
192 19.361780405044556 0.08217763900756836 12.168760408265106 9.916443425315162 2.7260253529108775e-38 145.0 703.0 -676.0 23.6875 -37.375 19.0 73.9375 -15.875 33.6875 272.125 6.0625 -119.1875 0.68902587890625 0.51751708984375 0.35186767578125 0.365478515625 166.0 -72.0 51.0 104.0 851.0 -475.0 2163 2190 1073 
193 19.480304956436157 0.11852455139160156 8.43707053314237 9.907442436430347 2.724088197913795e-38 72.0 950.0 -441.0 20.6875 -40.75 16.5 -13.125 -16.4375 11.5 270.875 7.0625 -118.25 0.6893310546875 0.509765625 0.361083984375 0.36688232421875 -49.0 93.0 19.0 121.0 857.0 -460.0 2213 2205 1047 
194 19.560978174209595 0.0806732177734375 12.395687535464347 9.917704435444932 2.724088197913795e-38 206.0 1110.0 -395.0 18.5 -40.0 15.5625 17.4375 -36.125 33.25 271.1875 7.6875 -114.6875 0.6810302734375 0.493408203125 0.37847900390625 0.3865966796875 30.0 127.0 -36.0 131.0 882.0 -406.0 2264 2232 1043 
195 19.6205313205719 0.05955314636230469 16.791724049578836 9.938568778488927 2.724088197913795e-38 36.0 821.0 -546.0 17.6875 -41.0625 13.1875 73.0 -46.6875 -1.375 276.5625 5.75 -118.3125 0.701416015625 0.49432373046875 0.34161376953125 0.38323974609375 -84.0 -105.0 61.0 98.0 858.0 -463.0 2284 2231 1073 
196 19.718488216400146 0.09795689582824707 10.208571755411198 9.939910090925936 2.724088197913795e-38 143.0 810.0 -555.0 19.1875 -40.0 15.1875 12.0 48.8125 21.625 266.4375 9.4375 -122.375 0.71142578125 0.50830078125 0.353515625 0.33245849609375 11.0 -20.0 19.0 161.0 816.0 -518.0 2292 2230 1132 
197 19.83125400543213 0.11276578903198242 8.86793777247798 9.933814570981655 2.723083747174567e-38 56.0 792.0 -528.0 17.6875 -39.375 18.5 19.25 12.875 -4.9375 269.1875 8.3125 -121.125 0.706298828125 0.507080078125 0.3516845703125 0.34686279296875 -86.0 -37.0 -26.0 142.0 830.0 -502.0 2270 2241 1176 
198 19.922548055648804 0.0912940502166748 10.953616337829544 9.938487760046307 2.723083747174567e-38 143.0 726.0 -547.0 18.5 -39.0 18.0 33.875 8.875 32.9375 267.0625 10.1875 -124.125 0.7310791015625 0.4940185546875 0.34332275390625 0.32183837890625 18.0 33.0 -16.0 180.0 794.0 -546.0 2246 2218 1162 
199 20.016067266464233 0.09351921081542969 10.692990149089352 9.94201295143592 2.723083747174567e-38 288.0 904.0 -626.0 15.5 -39.0 20.0625 18.375 15.875 28.1875 262.9375 12.625 -127.5625 0.75140380859375 0.482666015625 0.33709716796875 0.2979736328125 90.0 118.0 -18.0 218.0 756.0 -584.0 2263 2202 1103 
200 20.12986469268799 0.11379742622375488 8.787544966383896 9.9354865545941 2.723083747174567e-38 294.0 786.0 -452.0 16.1875 -39.375 18.875 6.5625 -1.25 8.5625 267.9375 11.375 -128.75 0.76617431640625 0.4691162109375 0.31597900390625 0.30511474609375 100.0 37.0 149.0 194.0 749.0 -602.0 2228 2204 1121 
201 20.245373010635376 0.1155083179473877 8.657385180307838 9.9281944518587 2.725953606429504e-38 223.0 748.0 -673.0 15.0625 -38.5625 22.1875 14.4375 25.9375 13.4375 259.5 14.125 -129.75 0.762939453125 0.4776611328125 0.3348388671875 0.27862548828125 -16.0 18.0 -65.0 239.0 730.0 -608.0 2187 2186 1124 
202 20.31438660621643 0.06901359558105469 14.489898571152198 9.943691823714024 2.725953606429504e-38 185.0 625.0 -693.0 14.375 -39.0 23.875 9.8125 7.375 5.5625 261.5625 13.3125 -130.375 0.7669677734375 0.4765625 0.32525634765625 0.28076171875 -41.0 -100.0 -74.0 226.0 726.0 -618.0 2151 2185 1123 
203 20.41698670387268 0.10260009765625 9.746579417013683 9.942701288113936 2.725953606429504e-38 252.0 765.0 -679.0 13.5625 -38.5625 21.75 19.9375 44.625 -1.0625 256.9375 15.25 -131.3125 0.7713623046875 0.472900390625 0.33331298828125 0.2650146484375 16.0 18.0 -26.0 258.0 710.0 -625.0 2160 2199 1120 
204 20.530784845352173 0.11379814147949219 8.787489734006 9.936298175477797 2.725953606429504e-38 260.0 687.0 -575.0 11.0 -37.0625 24.6875 16.9375 17.1875 -1.5 248.9375 17.3125 -132.375 0.76409912109375 0.4879150390625 0.34783935546875 0.23895263671875 -31.0 -3.0 55.0 292.0 690.0 -631.0 2171 2195 1084 
205 20.648584365844727 0.11779952049255371 8.488998901003265 9.928041378909004 2.7246621697647823e-38 357.0 677.0 -678.0 11.6875 -37.5 25.875 15.25 17.125 5.4375 243.6875 18.6875 -133.875 0.7637939453125 0.49481201171875 0.35198974609375 0.21875 42.0 8.0 -35.0 315.0 669.0 -643.0 2169 2197 1097 
206 20.764289140701294 0.11570477485656738 8.642685673427419 9.920878995862536 2.7246621697647823e-38 343.0 655.0 -594.0 10.5625 -37.0625 25.0625 -1.5625 9.9375 7.6875 245.1875 18.125 -134.3125 0.76708984375 0.49365234375 0.34515380859375 0.2208251953125 37.0 -11.0 56.0 305.0 666.0 -651.0 2165 2195 1111 
207 20.872511863708496 0.10822272300720215 9.240203648668595 9.917349734984008 2.7246621697647823e-38 293.0 706.0 -711.0 11.375 -37.0 27.0625 5.0625 3.0625 3.75 242.125 18.75 -135.125 0.76495361328125 0.50054931640625 0.34722900390625 0.209228515625 -22.0 51.0 -53.0 315.0 654.0 -658.0 2177 2208 1143 
208 20.936366081237793 0.06385421752929688 15.660672680566343 9.934866403888496 2.7246621697647823e-38 314.0 643.0 -622.0 9.875 -36.25 28.25 1.4375 14.6875 7.6875 241.625 19.0625 -135.0625 0.76580810546875 0.498291015625 0.34906005859375 0.20843505859375 -6.0 -10.0 33.0 320.0 654.0 -656.0 2187 2220 1143 
209 21.050843000411987 0.11447691917419434 8.735385326699308 9.92834348704751 2.724088197913795e-38 355.0 663.0 -687.0 9.1875 -36.0 28.25 22.75 14.8125 -1.4375 236.8125 19.9375 -136.6875 0.76397705078125 0.50836181640625 0.3494873046875 0.1890869140625 20.0 31.0 -16.0 335.0 631.0 -670.0 2193 2211 1103 
210 21.167011499404907 0.11616849899291992 8.608185598239903 9.921098214828483 2.724088197913795e-38 291.0 525.0 -758.0 9.1875 -35.1875 28.75 32.75 23.0625 5.0 110.9375 20.25 -139.8125 0.76361083984375 0.52484130859375 0.33892822265625 0.16290283203125 -48.0 -67.0 -55.0 339.0 592.0 -703.0 2199 2203 1076 
211 21.281104803085327 0.11409330368041992 8.76475628053546 9.914898777689835 2.724088197913795e-38 321.0 464.0 -739.0 9.1875 -32.875 31.1875 28.1875 44.25 14.9375 110.625 22.375 -142.8125 0.766357421875 0.53021240234375 0.3387451171875 0.12982177734375 -52.0 -82.0 -16.0 374.0 547.0 -722.0 2186 2210 1063 
212 21.3541042804718 0.07299947738647461 13.698728207406052 9.927833882214049 2.7245186768020355e-38 464.0 553.0 -772.0 7.5625 -30.6875 33.25 10.9375 15.1875 22.1875 110.9375 24.75 -144.9375 0.76922607421875 0.5291748046875 0.34307861328125 0.10272216796875 53.0 42.0 -43.0 411.0 511.0 -729.0 2176 2207 1075 
213 21.469130039215088 0.11502575874328613 8.693704879024486 9.92122175472124 2.7245186768020355e-38 482.0 557.0 -789.0 3.75 -31.0 34.0625 18.8125 26.875 11.625 112.3125 27.8125 -146.6875 0.774658203125 0.51922607421875 0.352783203125 0.07647705078125 24.0 82.0 -63.0 458.0 475.0 -725.0 2181 2192 1066 
214 21.580264806747437 0.11113476753234863 8.998084237760468 9.916467750344253 2.7245186768020355e-38 473.0 466.0 -799.0 2.6875 -29.5625 34.875 24.3125 1.4375 -0.625 111.9375 29.25 -148.5625 0.77410888671875 0.5224609375 0.3531494140625 0.05535888671875 -24.0 -34.0 -71.0 479.0 445.0 -730.0 2181 2199 1054 
215 21.66239905357361 0.08213424682617188 12.175189261994333 9.925031824419827 2.7245186768020355e-38 330.0 572.0 -527.0 2.6875 -29.1875 36.875 -4.5 2.625 10.0 111.4375 29.1875 -149.375 0.773193359375 0.5274658203125 0.3486328125 0.04931640625 -147.0 137.0 209.0 477.0 435.0 -737.0 2193 2184 1006 
216 21.73922109603882 0.07682204246520996 13.017097279766615 9.935958562901693 2.723585972544181e-38 532.0 429.0 -725.0 0.875 -28.75 37.0 -8.5625 1.6875 8.6875 112.0625 29.625 -148.5625 0.77398681640625 0.52130126953125 0.35546875 0.05316162109375 28.0 -39.0 17.0 485.0 444.0 -727.0 2186 2197 984 
217 21.80722141265869 0.06800031661987305 14.705813880104062 9.950832152969085 2.723585972544181e-38 524.0 394.0 -714.0 1.25 -30.5625 36.5 -0.125 -5.6875 -4.3125 112.6875 29.6875 -148.4375 0.77642822265625 0.51690673828125 0.356201171875 0.05560302734375 92.0 -80.0 -39.0 486.0 445.0 -725.0 2174 2223 920 
218 21.909560680389404 0.10233926773071289 9.771420317676276 9.949994122662867 2.723585972544181e-38 503.0 477.0 -906.0 2.75 -30.25 35.6875 -6.875 -41.8125 -3.75 112.8125 27.75 -149.875 0.78277587890625 0.51959228515625 0.3372802734375 0.0595703125 56.0 62.0 -122.0 457.0 435.0 -750.0 2155 2235 855 
219 21.991150617599487 0.08158993721008301 12.256413403348207 9.958551228544385 2.723585972544181e-38 391.0 428.0 -666.0 2.75 -30.5625 36.875 -2.4375 16.375 -7.875 112.75 27.125 -148.75 0.78143310546875 0.51947021484375 0.3385009765625 0.07037353515625 -55.0 -24.0 79.0 447.0 452.0 -746.0 2133 2242 836 
220 22.09758448600769 0.10643386840820312 9.395505537435934 9.955839297245596 2.723585972544181e-38 445.0 380.0 -749.0 4.6875 -31.0 35.6875 4.0625 43.0 17.5 113.8125 28.8125 -149.375 0.78460693359375 0.51129150390625 0.34576416015625 0.0587158203125 -27.0 -56.0 -9.0 473.0 437.0 -739.0 2112 2250 750 
221 22.20833134651184 0.11074686050415039 9.029601339918107 9.951220402459974 2.7232272401373137e-38 435.0 243.0 -734.0 0.875 -31.375 36.5 -12.9375 24.125 5.375 113.5 32.625 -149.625 0.77734375 0.50909423828125 0.36810302734375 0.03253173828125 -93.0 -173.0 -22.0 528.0 417.0 -712.0 2026 2241 648 
222 22.293806791305542 0.08547544479370117 11.69926640818945 9.957922488436507 2.7232272401373137e-38 641.0 608.0 -631.0 -1.25 -30.25 37.75 15.5 19.875 -17.6875 112.9375 33.6875 -149.1875 0.77197265625 0.5096435546875 0.3760986328125 0.026123046875 53.0 62.0 -5.0 543.0 417.0 -701.0 1926 2189 641 
223 22.409072637557983 0.1152658462524414 8.675596740164647 9.951326572356601 2.7232272401373137e-38 479.0 424.0 -736.0 0.5625 -29.1875 37.1875 30.125 -6.5625 -10.6875 109.6875 32.0625 -150.5625 0.762451171875 0.53497314453125 0.363525390625 0.01971435546875 -43.0 13.0 -16.0 522.0 410.0 -720.0 1875 2186 613 
224 22.511638164520264 0.10256552696228027 9.74986459502872 9.950408689183618 2.72545138105989e-38 523.0 434.0 -777.0 1.6875 -27.25 38.875 66.6875 23.625 -4.625 107.9375 32.0 -155.5625 0.7613525390625 0.55352783203125 0.3372802734375 -0.0155029296875 31.0 38.0 22.0 520.0 343.0 -757.0 1860 2163 629 
225 22.609525680541992 0.09788751602172852 10.215807292300948 9.951557727442177 2.72545138105989e-38 525.0 487.0 -799.0 3.1875 -25.75 39.25 3.0625 18.875 -59.1875 103.375 30.5625 -151.75 0.7322998046875 0.58453369140625 0.34930419921875 0.0023193359375 4.0 85.0 6.0 499.0 403.0 -741.0 1938 2182 616 
226 22.709572315216064 0.10004663467407227 9.995338706371864 9.951750603800386 2.72545138105989e-38 696.0 321.0 -632.0 3.5625 -24.25 41.6875 -89.1875 3.625 54.9375 101.375 31.8125 -148.75 0.718994140625 0.5885009765625 0.3697509765625 0.0037841796875 -102.0 -81.0 0.0 517.0 436.0 -709.0 1911 2245 689 
227 22.809791326522827 0.1002190113067627 9.978146730454931 9.951866580035231 2.72545138105989e-38 460.0 354.0 -667.0 2.375 -25.875 39.25 6.375 4.625 -22.1875 101.5625 31.6875 -148.1875 0.71905517578125 0.5867919921875 0.3721923828125 0.0079345703125 -43.0 31.0 31.0 515.0 439.0 -708.0 1874 2291 762 
228 22.912548542022705 0.10275721549987793 9.731676701585865 9.95087908190733 2.725594874022637e-38 464.0 455.0 -754.0 3.1875 -25.1875 39.25 16.75 -2.1875 9.1875 100.9375 30.625 -149.3125 0.71966552734375 0.59344482421875 0.36041259765625 0.007568359375 -34.0 25.0 -28.0 499.0 430.0 -725.0 1835 2332 774 
229 23.009865760803223 0.09731721878051758 10.275673848174081 9.95225275890554 2.725594874022637e-38 540.0 485.0 -743.0 4.6875 -24.0 39.6875 14.0 15.0 2.3125 101.375 31.5625 -151.25 0.7237548828125 0.591796875 0.35479736328125 -0.0072021484375 28.0 190.0 18.0 512.0 401.0 -733.0 1800 2234 592 
230 23.111756563186646 0.10189080238342285 9.814428551037647 9.95164514523978 2.725594874022637e-38 511.0 482.0 -688.0 4.6875 -24.0 40.0625 -1.4375 -38.3125 -8.375 100.6875 31.125 -151.6875 0.72113037109375 0.5972900390625 0.3509521484375 -0.00927734375 4.0 84.0 50.0 507.0 397.0 -738.0 1800 2227 572 
231 23.210248470306396 0.09849190711975098 10.153118456566732 9.952500090446062 2.725594874022637e-38 721.0 717.0 -800.0 5.75 -22.1875 40.0625 35.75 -36.9375 -57.5 99.25 27.9375 -152.4375 0.7193603515625 0.6116943359375 0.3291015625 0.00372314453125 261.0 317.0 -32.0 459.0 400.0 -768.0 1760 2159 598 
232 23.291968822479248 0.08172035217285156 12.236853775236318 9.96051479238179 2.7258818599481307e-38 676.0 538.0 -849.0 7.25 -22.875 40.875 13.125 -38.375 -80.8125 94.0625 23.125 -153.5625 0.6988525390625 0.65057373046875 0.2967529296875 0.01666259765625 290.0 136.0 -42.0 385.0 401.0 -807.0 1727 2095 705 
233 23.396559953689575 0.10459113121032715 9.561040103764187 9.958728995253702 2.7258818599481307e-38 452.0 395.0 -840.0 15.875 -18.0625 40.875 -2.9375 -11.25 -128.4375 81.1875 14.9375 -150.5 0.62445068359375 0.7283935546875 0.2757568359375 0.0592041015625 199.0 -70.0 -16.0 253.0 466.0 -824.0 1704 2118 834 
234 23.502307653427124 0.10574769973754883 9.456470471526679 9.956469102976701 2.7258818599481307e-38 238.0 344.0 -797.0 20.25 -13.1875 40.5 17.4375 0.4375 -148.875 65.5625 6.1875 -151.375 0.52435302734375 0.8133544921875 0.23687744140625 0.08612060546875 132.0 -121.0 58.0 106.0 466.0 -856.0 1746 2204 926 
235 23.601744651794434 0.09943699836730957 10.056618928762386 9.956891046278352 2.7258818599481307e-38 128.0 351.0 -589.0 22.75 -9.5 40.875 -28.8125 27.4375 -145.3125 52.1875 1.375 -148.0625 0.4232177734375 0.86322021484375 0.2525634765625 0.109375 103.0 -167.0 242.0 24.0 513.0 -834.0 1791 2221 1031 
236 23.69963312149048 0.09788846969604492 10.215707765226243 9.957960057449103 2.7238729584696746e-38 -22.0 323.0 -742.0 21.0625 -6.875 43.375 -44.625 95.6875 -81.375 41.1875 1.625 -145.4375 0.33599853515625 0.8936767578125 0.28326416015625 0.0904541015625 -50.0 -232.0 65.0 28.0 556.0 -807.0 1861 2282 1019 
237 23.828978776931763 0.12934565544128418 7.731222178188622 9.945873141212152 2.7238729584696746e-38 -96.0 512.0 -840.0 14.5625 -6.1875 47.375 35.625 69.0625 -14.375 31.0625 5.625 -146.0625 0.25592041015625 0.9205322265625 0.2938232421875 0.02789306640625 -193.0 -31.0 -30.0 97.0 544.0 -809.0 1805 2345 1065 
238 23.919954299926758 0.09097552299499512 10.991967587314816 9.949851785491445 2.7238729584696746e-38 157.0 488.0 -878.0 9.0625 -3.75 49.0 -42.0625 75.1875 11.375 29.25 10.0625 -145.1875 0.24041748046875 0.91998291015625 0.3092041015625 -0.0142822265625 -13.0 -62.0 -85.0 171.0 551.0 -792.0 1825 2406 1066 
239 24.013525009155273 0.09357070922851562 10.687105059317542 9.952724554553322 2.7243751838392886e-38 316.0 344.0 -500.0 2.6875 -7.1875 48.75 -107.4375 42.25 24.0 163.5 16.8125 -136.0 0.2437744140625 0.88604736328125 0.3902587890625 -0.05645751953125 31.0 -306.0 175.0 284.0 651.0 -675.0 1805 2413 1036 
240 24.11365246772766 0.1001274585723877 9.987270367768742 9.952867999619814 2.7243751838392886e-38 754.0 915.0 -1013.0 -2.875 -15.25 50.375 -38.5 119.25 96.75 148.0 25.5 -133.4375 0.2689208984375 0.85919189453125 0.41845703125 -0.11993408203125 331.0 273.0 -404.0 422.0 641.0 -608.0 1786 2442 994 
241 24.213849306106567 0.10019683837890625 9.980354831340897 9.952981740049957 2.7243751838392886e-38 467.0 328.0 -505.0 -12.5 -16.75 48.5 9.1875 32.25 -36.9375 141.4375 28.5625 -131.0625 0.25347900390625 0.85113525390625 0.4339599609375 -0.15167236328125 -1.0 -320.0 60.0 468.0 649.0 -566.0 1791 2406 855 
242 24.316181659698486 0.10233235359191895 9.772080528781746 9.952220434390386 2.7243751838392886e-38 574.0 865.0 -703.0 -15.0 -15.875 48.0 59.625 107.6875 19.25 125.875 33.25 -131.0625 0.2132568359375 0.85406494140625 0.42254638671875 -0.21575927734375 36.0 247.0 -164.0 538.0 617.0 -539.0 1789 2417 684 
243 24.414730310440063 0.09854865074157715 10.147272362178626 9.953007750246988 2.7241599443951683e-38 525.0 316.0 -775.0 -24.5625 -11.375 46.5 72.9375 136.625 -92.375 110.125 36.1875 -128.875 0.1259765625 0.85870361328125 0.40728759765625 -0.28436279296875 -53.0 -299.0 -278.0 579.0 615.0 -496.0 1752 2492 745 
244 24.53053379058838 0.11580348014831543 8.635319065707256 9.946787219673768 2.7241599443951683e-38 501.0 891.0 -925.0 -33.1875 -8.875 42.0625 51.875 150.4375 -82.75 101.8125 35.3125 -120.6875 0.006591796875 0.84149169921875 0.41937255859375 -0.340576171875 -66.0 203.0 -516.0 567.0 687.0 -408.0 1708 2651 812 
245 24.63121271133423 0.10067892074584961 9.932565750524535 9.946729090089077 2.7241599443951683e-38 497.0 1352.0 -506.0 -38.6875 -12.75 35.75 -29.9375 -31.0625 -17.625 99.625 35.375 -119.0 -0.0155029296875 0.835205078125 0.420166015625 -0.3544921875 -154.0 558.0 -81.0 567.0 699.0 -387.0 1699 2610 904 
246 24.73139190673828 0.10017919540405273 9.982112513149064 9.946872417357762 2.7241599443951683e-38 625.0 784.0 -325.0 -36.0625 -12.75 37.0625 4.8125 -62.875 18.25 105.9375 32.3125 -126.75 0.019775390625 0.86761474609375 0.396728515625 -0.29913330078125 131.0 129.0 22.0 524.0 663.0 -496.0 1655 2648 940 
247 24.862348556518555 0.13095664978027344 7.6361147118367585 9.934701037534932 2.725594874022637e-38 421.0 665.0 -356.0 -23.0625 -12.0625 42.75 8.5625 -42.9375 -87.125 123.625 23.5625 -129.25 0.0198974609375 0.88861083984375 0.40399169921875 -0.21630859375 -81.0 -63.0 203.0 392.0 695.0 -568.0 1631 2761 930 
248 24.946611404418945 0.08426284790039062 11.86762642039024 9.941229932177091 2.725594874022637e-38 -32.0 541.0 -606.0 -20.0625 -13.1875 42.5 -28.8125 -6.25 -52.4375 130.1875 18.4375 -130.0 -0.020263671875 0.89697265625 0.400634765625 -0.1859130859375 -343.0 -170.0 -8.0 311.0 712.0 -598.0 1606 2821 970 
249 25.066392421722412 0.1197810173034668 8.348568266593418 9.933619318279636 2.725594874022637e-38 -169.0 614.0 -676.0 -11.1875 -18.1875 43.375 -16.625 -50.8125 -59.25 147.4375 9.625 -126.8125 -0.06610107421875 0.889404296875 0.43426513671875 -0.1265869140625 -333.0 -159.0 -96.0 164.0 773.0 -579.0 1612 2935 1027 
250 25.18210506439209 0.11571264266967773 8.642098019096128 9.927684733295157 2.724733916246156e-38 63.0 756.0 -736.0 -4.5625 -22.0 41.75 -21.25 -48.875 -22.5625 166.6875 1.5625 -122.1875 -0.07220458984375 0.8724365234375 0.48016357421875 -0.05596923828125 12.0 -62.0 -247.0 27.0 829.0 -522.0 1631 3031 1049 
251 25.293840885162354 0.11173582077026367 8.949681428089805 9.923364392919835 2.724733916246156e-38 -288.0 627.0 -655.0 0.25 -25.875 40.1875 36.125 -76.9375 -63.75 180.3125 -4.875 -124.1875 -0.08819580078125 0.87896728515625 0.4686279296875 0.00140380859375 -204.0 -180.0 -105.0 -83.0 807.0 -549.0 1628 3131 1125 
252 25.404343128204346 0.11050224304199219 9.049590057823423 9.919563703271871 2.724733916246156e-38 34.0 784.0 -181.0 11.75 -24.5 41.1875 -40.0 -107.0625 20.375 199.875 -11.125 -121.9375 -0.04766845703125 0.8702392578125 0.48297119140625 0.08477783203125 224.0 -31.0 327.0 -189.0 816.0 -509.0 1633 3167 1286 
253 25.498647212982178 0.09430408477783203 10.603994539111088 9.922094999266847 2.724733916246156e-38 -122.0 843.0 -249.0 14.25 -26.875 39.5625 -0.375 -31.375 5.375 205.6875 -12.1875 -118.5625 -0.0150146484375 0.8565673828125 0.50286865234375 0.11468505859375 84.0 1.0 209.0 -207.0 841.0 -458.0 1705 3216 1290 
254 25.60413694381714 0.10548973083496094 9.479595711211962 9.920271890333552 2.7232272401373137e-38 -170.0 931.0 -334.0 17.0 -28.375 36.75 -22.625 -14.8125 61.0 207.25 -10.625 -118.25 0.0233154296875 0.8555908203125 0.5025634765625 0.121826171875 10.0 82.0 122.0 -181.0 848.0 -456.0 1751 3277 1381 
255 25.687917232513428 0.08378028869628906 11.935981787137166 9.926846061199708 2.7232272401373137e-38 -326.0 934.0 -693.0 15.5 -29.5 36.75 9.1875 26.6875 40.375 202.75 -6.875 -118.0625 0.05517578125 0.8551025390625 0.50604248046875 0.0985107421875 -236.0 33.0 -247.0 -110.0 859.0 -459.0 1842 3320 1425 
256 25.804199934005737 0.11628270149230957 8.599731406017735 9.920865620895832 2.7232272401373137e-38 -48.0 868.0 -307.0 11.25 -34.6875 34.75 -43.75 -29.75 33.5625 199.0 -0.5 -113.0 0.12908935546875 0.8238525390625 0.54425048828125 0.09124755859375 -39.0 -34.0 75.0 -9.0 902.0 -383.0 1885 3372 1497 
257 25.898341417312622 0.09414148330688477 10.622309792381058 9.92341539787562 2.7232272401373137e-38 -307.0 710.0 -410.0 11.0 -36.1875 34.875 8.3125 -17.9375 -28.6875 202.25 -1.625 -111.9375 0.134765625 0.81768798828125 0.54913330078125 0.108154296875 -279.0 -198.0 -44.0 -28.0 909.0 -366.0 1904 3423 1602 
258 25.970573663711548 0.07223224639892578 13.844232318031185 9.934320409737468 2.7227250147676997e-38 -293.0 730.0 -332.0 11.6875 -35.6875 34.0625 21.5 -44.8125 1.25 207.8125 -3.375 -113.0625 0.14825439453125 0.82073974609375 0.5355224609375 0.13262939453125 -251.0 -183.0 55.0 -57.0 900.0 -383.0 1953 3476 1579 
259 26.08929204940796 0.11871838569641113 8.423295129342632 9.927444543512534 2.7227250147676997e-38 -319.0 683.0 -421.0 14.0625 -35.6875 34.875 60.8125 -52.3125 -5.4375 218.25 -5.9375 -116.5 0.18402099609375 0.8297119140625 0.497802734375 0.17279052734375 -218.0 -189.0 14.0 -101.0 872.0 -436.0 2081 3517 1617 
260 26.20398497581482 0.11469292640686035 8.718933515155168 9.922154979098375 2.7227250147676997e-38 -124.0 754.0 -569.0 19.1875 -31.1875 38.5 39.625 -66.375 42.8125 228.3125 -6.4375 -121.9375 0.24847412109375 0.8375244140625 0.4439697265625 0.19915771484375 -13.0 -71.0 -53.0 -110.0 826.0 -516.0 2224 3561 1617 
261 26.298251628875732 0.09426665306091309 10.608205208620502 9.92461414101839 2.7213618316216045e-38 -103.0 876.0 -567.0 20.25 -30.5 39.25 17.9375 -60.125 25.375 236.3125 -7.125 -123.4375 0.295654296875 0.8282470703125 0.41961669921875 0.2247314453125 18.0 64.0 -31.0 -121.0 811.0 -536.0 2378 3686 1587 
262 26.42124342918396 0.12299180030822754 8.130623321993157 9.916263051821558 2.7213618316216045e-38 -424.0 838.0 -874.0 25.75 -28.0 38.5 71.4375 -24.3125 -29.1875 252.5625 -12.4375 -127.625 0.31597900390625 0.83575439453125 0.362060546875 0.26580810546875 -213.0 80.0 -289.0 -211.0 758.0 -585.0 2554 3784 1498 
263 26.52129316329956 0.10004973411560059 9.995029060692643 9.91656019111248 2.7213618316216045e-38 -307.0 848.0 -952.0 31.25 -22.0625 41.75 39.0625 -42.125 1.5 265.6875 -16.3125 -132.0625 0.32977294921875 0.84442138671875 0.30938720703125 0.28717041015625 -32.0 150.0 -321.0 -275.0 698.0 -631.0 2726 3908 1491 
264 26.622034788131714 0.10074162483215332 9.926383475213056 9.916597363838358 2.7213618316216045e-38 -58.0 727.0 -875.0 34.875 -21.0625 41.0625 -32.75 -38.875 30.4375 268.3125 -16.1875 -131.3125 0.35272216796875 0.832275390625 0.30682373046875 0.29803466796875 215.0 20.0 -253.0 -274.0 706.0 -621.0 2816 3974 1605 
265 26.722074031829834 0.10003924369812012 9.996077169651688 9.916894911837565 2.7221510429167123e-38 39.0 551.0 -343.0 35.5625 -26.25 38.1875 -31.5625 -21.9375 9.5 270.625 -17.0625 -125.9375 0.3673095703125 0.8037109375 0.3291015625 0.33294677734375 327.0 -207.0 207.0 -287.0 758.0 -550.0 2885 4024 1685 
266 26.82202935218811 0.09995532035827637 10.004469961335072 9.91722127014599 2.7221510429167123e-38 -89.0 582.0 -311.0 37.375 -30.0625 34.1875 9.3125 32.0 -17.625 268.875 -16.8125 -125.4375 0.35943603515625 0.80517578125 0.33660888671875 0.33038330078125 194.0 -181.0 233.0 -284.0 764.0 -544.0 2980 4082 1723 
267 26.92363977432251 0.10161042213439941 9.84151014230909 9.916935534646472 2.7221510429167123e-38 -162.0 874.0 -496.0 38.5 -30.0 36.6875 25.3125 82.5625 -44.375 258.5625 -14.0625 -128.0 0.329345703125 0.830810546875 0.34716796875 0.2841796875 76.0 125.0 89.0 -238.0 749.0 -585.0 3008 4092 1839 
268 27.022252082824707 0.09861230850219727 10.140721936123402 9.91775219839431 2.7221510429167123e-38 -264.0 936.0 -1012.0 37.375 -27.75 41.5625 41.875 122.3125 -64.4375 249.375 -13.125 -135.3125 0.25787353515625 0.8829345703125 0.322509765625 0.22332763671875 -41.0 265.0 -333.0 -223.0 671.0 -678.0 3086 4094 1761 
269 27.122157335281372 0.09990525245666504 10.009483739944109 9.918090094185693 2.7205008738451234e-38 -67.0 740.0 -975.0 32.5 -22.5625 48.0 -36.5625 51.1875 -54.9375 23.5 -10.625 -136.375 0.1888427734375 0.90576171875 0.33782958984375 0.1727294921875 113.0 76.0 -277.0 -181.0 664.0 -698.0 3094 4167 1726 
270 27.22228479385376 0.1001274585723877 9.987270367768742 9.918344549130591 2.7205008738451234e-38 -152.0 420.0 -499.0 29.0 -24.1875 47.375 -23.9375 35.625 -57.4375 229.5 -11.9375 -135.125 0.128173828125 0.9111328125 0.35565185546875 0.16400146484375 51.0 -256.0 179.0 -203.0 676.0 -679.0 3162 4191 1661 
271 27.322640657424927 0.10035586357116699 9.964539832700993 9.9185142240765 2.7205008738451234e-38 -204.0 556.0 -601.0 27.25 -24.875 47.375 26.25 57.375 -43.9375 9.6875 -11.125 -137.1875 0.07861328125 0.924072265625 0.3489990234375 0.13458251953125 -14.0 -96.0 104.0 -190.0 653.0 -706.0 3238 4203 1629 
272 27.42268657684326 0.10004591941833496 9.995410165791675 9.918794762789103 2.7205008738451234e-38 -364.0 583.0 -643.0 23.6875 -23.75 49.75 24.0 31.3125 -31.5625 4.5 -10.0625 -141.125 0.0369873046875 0.93914794921875 0.324462890625 0.1063232421875 -192.0 -21.0 108.0 -172.0 605.0 -751.0 3308 4291 1484 
273 27.524625778198242 0.10193920135498047 9.809768829929554 9.918390978315802 2.721935803472592e-38 -368.0 642.0 -689.0 20.75 -21.875 49.0 8.375 -7.4375 -6.875 2.75 -10.3125 -142.875 0.0228271484375 0.94439697265625 0.3115234375 0.10284423828125 -193.0 56.0 80.0 -176.0 581.0 -769.0 3324 4516 1167 
274 27.606102466583252 0.08147668838500977 12.273449250595485 9.925341700505264 2.721935803472592e-38 -316.0 638.0 -714.0 19.875 -20.6875 49.0 9.6875 -19.5625 7.875 3.0625 -11.8125 -142.875 0.0252685546875 0.9432373046875 0.309814453125 0.1170654296875 -115.0 59.0 50.0 -201.0 578.0 -765.0 3357 4596 1172 
275 27.726300716400146 0.12019824981689453 8.31958869220943 9.918380486919306 2.721935803472592e-38 -211.0 767.0 -1299.0 17.75 -18.6875 45.375 0.6875 -15.875 -5.6875 4.0625 -13.0625 -144.25 0.03375244140625 0.945556640625 0.29620361328125 0.13037109375 -28.0 158.0 -484.0 -222.0 557.0 -775.0 3279 4744 1179 
276 27.826233386993408 0.09993267059326172 10.006737476977106 9.918697804389453 2.723801211988301e-38 -41.0 629.0 -695.0 17.5 -20.375 44.375 -14.625 -21.875 24.75 7.375 -14.3125 -140.3125 0.06036376953125 0.932373046875 0.321533203125 0.15362548828125 196.0 31.0 23.0 -242.0 606.0 -731.0 3161 4895 1184 
277 27.928375244140625 0.1021418571472168 9.790305638938037 9.918228238433406 2.723801211988301e-38 -134.0 611.0 -875.0 17.5 -23.375 43.875 -11.6875 -2.4375 -0.375 8.0 -13.9375 -139.5625 0.0653076171875 0.93017578125 0.3275146484375 0.15252685546875 110.0 -23.0 -145.0 -236.0 617.0 -724.0 3108 5061 993 
278 28.02998661994934 0.10161137580871582 9.84141777474313 9.917949793174124 2.723801211988301e-38 -48.0 452.0 -614.0 17.875 -25.25 41.5 -27.625 -5.25 -14.75 229.75 -14.75 -136.6875 0.06201171875 0.9208984375 0.34912109375 0.1619873046875 198.0 -173.0 98.0 -250.0 650.0 -690.0 3140 5121 1041 
279 28.128138065338135 0.09815144538879395 10.188336972918089 9.918893292969411 2.723801211988301e-38 -198.0 493.0 -606.0 18.25 -26.75 41.5 -22.375 33.375 -24.125 226.375 -15.0625 -135.125 0.0361328125 0.9169921875 0.3651123046875 0.156494140625 27.0 -129.0 56.0 -255.0 667.0 -671.0 3176 5130 1086 
280 28.22799301147461 0.09985494613647461 10.014526457540434 9.919231589939132 2.7227250147676997e-38 -430.0 682.0 -745.0 16.875 -27.0625 41.5 6.75 55.75 -44.125 217.5 -13.5625 -136.0625 -0.0076904296875 0.9219970703125 0.3665771484375 0.12451171875 -200.0 81.0 -51.0 -230.0 661.0 -686.0 3203 5222 1061 
281 28.328417778015137 0.10042476654052734 9.957703009410938 9.91936797183484 2.7227250147676997e-38 -468.0 856.0 -1074.0 13.5 -25.5625 41.5 -8.625 51.6875 -24.25 354.375 -12.5 -137.6875 -0.045166015625 0.92694091796875 0.35894775390625 0.09930419921875 -255.0 212.0 -366.0 -212.0 643.0 -708.0 2986 5442 1030 
282 28.42858862876892 0.10017085075378418 9.98294406481541 9.919591988278448 2.7227250147676997e-38 -400.0 611.0 -876.0 11.0625 -25.875 42.6875 -67.9375 -45.5 17.8125 210.125 -13.25 -135.375 -0.0565185546875 0.9183349609375 0.37823486328125 0.10186767578125 -54.0 -96.0 -48.0 -225.0 669.0 -679.0 2997 5532 1039 
283 28.52954387664795 0.10095524787902832 9.905379076462378 9.919541694167835 2.7227250147676997e-38 -158.0 455.0 -264.0 12.5625 -29.25 40.0 -57.8125 -50.3125 1.0625 211.0 -13.4375 -126.25 -0.01531982421875 0.8853759765625 0.4471435546875 0.12615966796875 128.0 -243.0 311.0 -232.0 772.0 -557.0 2847 5694 1069 
284 28.629435539245605 0.09989166259765625 10.010845489956465 9.919860264471128 2.723298986618687e-38 -427.0 364.0 -395.0 14.0625 -33.6875 35.875 18.8125 2.3125 6.0 212.875 -14.3125 -125.5 -0.01531982421875 0.88385009765625 0.44830322265625 0.13250732421875 -177.0 -408.0 156.0 -243.0 773.0 -552.0 2937 5694 1051 
285 28.729856491088867 0.10042095184326172 9.958081273326432 9.919993860338229 2.723298986618687e-38 -431.0 478.0 -599.0 14.0625 -32.1875 38.25 27.1875 -37.625 26.5 215.1875 -13.1875 -126.875 0.02337646484375 0.89068603515625 0.43206787109375 0.13946533203125 -268.0 -294.0 -51.0 -223.0 761.0 -576.0 3078 5734 980 
286 28.82978653907776 0.0999300479888916 10.007000097820045 9.920295442088587 2.723298986618687e-38 -355.0 657.0 -753.0 13.75 -31.875 38.25 44.0 -69.0 64.4375 221.25 -12.0625 -129.375 0.0888671875 0.8966064453125 0.40472412109375 0.1563720703125 -138.0 -93.0 -147.0 -206.0 743.0 -605.0 3221 5785 892 
287 28.931206464767456 0.10141992568969727 9.85999539242006 9.920084056968374 2.723298986618687e-38 -155.0 839.0 -761.0 14.0625 -30.375 39.875 27.625 -79.6875 60.1875 231.625 -12.125 -130.3125 0.158203125 0.8896484375 0.38555908203125 0.1866455078125 50.0 9.0 -130.0 -205.0 731.0 -620.0 3449 5770 861 
288 29.031279802322388 0.10007333755493164 9.992671618962305 9.920334272585569 2.724231690876542e-38 -208.0 836.0 -643.0 17.0625 -28.1875 38.6875 27.3125 -97.75 33.375 246.8125 -14.6875 -131.1875 0.2215576171875 0.87725830078125 0.35540771484375 0.234619140625 40.0 122.0 -18.0 -249.0 713.0 -624.0 3731 5746 960 
289 29.131444215774536 0.10016441345214844 9.983585642197468 9.920551753610207 2.724231690876542e-38 -378.0 496.0 -529.0 22.1875 -26.25 37.5 38.875 -123.0625 15.6875 269.9375 -20.6875 -134.125 0.26776123046875 0.868408203125 0.295166015625 0.29498291015625 -31.0 -161.0 109.0 -347.0 657.0 -639.0 3966 5697 1072 
290 29.23179602622986 0.10035181045532227 9.964942291152894 9.920704144890083 2.724231690876542e-38 -563.0 489.0 -1165.0 29.6875 -21.75 35.5625 94.125 -41.75 8.0 292.8125 -26.0 -138.75 0.31207275390625 0.86053466796875 0.22259521484375 0.33551025390625 -133.0 -91.0 -502.0 -430.0 581.0 -662.0 4172 5647 1220 
291 29.314510822296143 0.08271479606628418 12.08973542289389 9.926824355488481 2.724231690876542e-38 -329.0 420.0 -788.0 31.75 -17.375 34.0625 25.125 -51.6875 38.5625 298.9375 -26.625 -138.3125 0.348388671875 0.843994140625 0.20703125 0.351318359375 110.0 -162.0 -134.0 -440.0 582.0 -654.0 4330 5596 1360 
292 29.432207107543945 0.11769628524780273 8.49644487839661 9.921104419150263 2.721433578102978e-38 -281.0 593.0 -545.0 34.375 -18.0625 30.5 -7.4375 -4.5625 27.25 300.625 -26.1875 -134.8125 0.38934326171875 0.8153076171875 0.21221923828125 0.372314453125 151.0 -30.0 75.0 -433.0 623.0 -620.0 4567 5718 1615 
293 29.553695917129517 0.12148880958557129 8.231210787324775 9.9141576343477 2.721433578102978e-38 -457.0 644.0 -806.0 35.0625 -20.1875 29.75 -13.875 23.5625 0.5 295.4375 -24.0 -135.25 0.3887939453125 0.8204345703125 0.2237548828125 0.35443115234375 -58.0 14.0 -170.0 -399.0 630.0 -636.0 4664 5853 2099 
294 29.632408618927002 0.07871270179748535 12.70442987172303 9.921569447183394 2.721433578102978e-38 -488.0 757.0 -744.0 34.6875 -19.5 31.1875 -31.6875 -5.75 29.5 292.625 -23.1875 -133.8125 0.39031982421875 0.81610107421875 0.23626708984375 0.35467529296875 -101.0 108.0 -119.0 -386.0 649.0 -624.0 4683 5832 2057 
295 29.733036041259766 0.10062742233276367 9.93764897100426 9.921623866147948 2.722581521804953e-38 -663.0 655.0 -594.0 35.25 -20.5625 29.875 13.8125 -23.3125 2.875 297.875 -25.375 -131.75 0.3985595703125 0.80126953125 0.2301025390625 0.38232421875 -242.0 -4.0 -4.0 -418.0 661.0 -590.0 4777 5810 2213 
296 29.863937616348267 0.13090157508850098 7.639327481918472 9.91161995456226 2.722581521804953e-38 -738.0 634.0 -1332.0 38.25 -20.75 30.0 -56.9375 32.4375 95.5625 290.3125 -20.4375 -131.4375 0.43267822265625 0.789306640625 0.24884033203125 0.357666015625 -395.0 -53.0 -724.0 -342.0 688.0 -608.0 4753 5773 2275 
297 29.95137310028076 0.08743548393249512 11.437004234711546 9.916072929464992 2.722581521804953e-38 -319.0 504.0 -464.0 36.0625 -25.6875 30.0 -129.5625 -142.0 73.3125 287.3125 -18.5 -117.375 0.46142578125 0.7109375 0.3143310546875 0.4276123046875 -8.0 -320.0 -36.0 -311.0 825.0 -428.0 4743 5777 2329 
298 30.065043210983276 0.11367011070251465 8.797387403071102 9.911843395958781 2.722581521804953e-38 -185.0 839.0 -297.0 32.5 -41.0 9.75 -60.625 -142.75 9.6875 297.25 -18.75 -101.625 0.49102783203125 0.59539794921875 0.330810546875 0.5430908203125 108.0 -62.0 -105.0 -315.0 909.0 -187.0 4834 5582 2106 
299 30.180959701538086 0.11591649055480957 8.62690023838466 9.90690829439603 2.722294535879459e-38 -458.0 940.0 -593.0 31.6875 -40.25 -0.75 -7.375 -78.1875 -44.375 311.5625 -22.875 -93.875 0.49591064453125 0.5343017578125 0.28070068359375 0.62432861328125 -76.0 39.0 -531.0 -381.0 901.0 -61.0 4763 5455 2273 
300 30.297058582305908 0.11609888076782227 8.613347461977929 9.901951345706083 2.722294535879459e-38 -387.0 443.0 353.0 32.75 -38.375 -5.6875 -31.8125 -90.1875 -41.125 326.0625 -27.8125 -82.5625 0.4705810546875 0.470458984375 0.21783447265625 0.7139892578125 29.0 -411.0 254.0 -457.0 859.0 112.0 4804 5298 2254 
301 30.418587923049927 0.12152934074401855 8.228465602445212 9.895265380544338 2.722294535879459e-38 -387.0 835.0 -121.0 32.375 -36.1875 -15.75 88.8125 -51.0625 -4.75 332.6875 -28.25 -81.6875 0.48974609375 0.44366455078125 0.17706298828125 0.72930908203125 71.0 -228.0 -96.0 -464.0 854.0 124.0 4789 5188 2284 
302 30.51815390586853 0.09956598281860352 10.043590910179354 9.895749295042597 2.7228685077304466e-38 -535.0 764.0 -201.0 31.1875 -37.25 -14.5625 69.125 -64.5 -23.3125 343.9375 -29.5625 -89.1875 0.55670166015625 0.42889404296875 0.099365234375 0.7044677734375 -51.0 -88.0 -213.0 -484.0 852.0 11.0 4781 5087 2325 
303 30.63495635986328 0.11680245399475098 8.561463957297843 9.890662041124326 2.7228685077304466e-38 -587.0 763.0 -281.0 30.0625 -38.0 -12.25 76.3125 -41.875 8.5 353.9375 -29.75 -93.25 0.60882568359375 0.39263916015625 0.036376953125 0.6883544921875 -85.0 -77.0 -277.0 -486.0 849.0 -48.0 4773 4968 2091 
304 30.75618028640747 0.12122392654418945 8.249196577834596 9.884192288154559 2.7228685077304466e-38 -667.0 784.0 -559.0 28.5625 -39.75 -9.875 55.8125 -74.125 44.625 4.6875 -28.5625 -98.375 0.67205810546875 0.33514404296875 -0.02703857421875 0.6597900390625 -170.0 -62.0 -432.0 -469.0 851.0 -125.0 4606 4859 2070 
305 30.836913347244263 0.08073306083679199 12.386499280902726 9.890743491914902 2.7228685077304466e-38 -478.0 789.0 -388.0 24.5625 -43.1875 -7.5 40.125 -106.75 53.625 10.8125 -25.75 -96.875 0.69696044921875 0.26141357421875 -0.06304931640625 0.66473388671875 -51.0 -84.0 -299.0 -427.0 876.0 -106.0 4510 4782 1883 
306 30.942630290985107 0.10571694374084473 9.45922162157286 9.889269177260303 2.7217205640284717e-38 -237.0 1024.0 -481.0 20.0625 -45.75 -9.5625 33.6875 -141.5 65.375 19.75 -19.875 -95.75 0.72698974609375 0.14190673828125 -0.11016845703125 0.66278076171875 103.0 109.0 -386.0 -341.0 914.0 -95.0 4323 4818 1856 
307 31.053195238113403 0.1105649471282959 9.044457813918486 9.886261225163745 2.7217205640284717e-38 -61.0 982.0 -293.0 12.5625 -48.0 -10.75 -72.25 -42.3125 73.0625 26.75 -15.0 -92.75 0.72320556640625 0.020751953125 -0.15985107421875 0.67156982421875 192.0 36.0 -247.0 -254.0 946.0 -45.0 4168 4876 1759 
308 31.137190103530884 0.08399486541748047 11.90548963951178 9.891708242648187 2.7217205640284717e-38 114.0 1016.0 214.0 6.6875 -50.25 -14.5 -137.8125 -60.1875 80.625 23.1875 -8.4375 -81.125 0.650146484375 -0.03436279296875 -0.15283203125 0.74346923828125 360.0 85.0 72.0 -144.0 958.0 149.0 4034 4966 1652 
309 31.2375431060791 0.10035300254821777 9.964823917645298 9.891943132360684 2.721577071065725e-38 28.0 773.0 378.0 -0.6875 -44.25 -25.0625 -58.375 -1.25 1.3125 21.0 -4.625 -69.25 0.56622314453125 -0.05450439453125 -0.14990234375 0.80865478515625 88.0 -148.0 40.0 -80.0 917.0 337.0 3907 4985 1616 
310 31.337624549865723 0.1000814437866211 9.991862249030426 9.892262239172442 2.721577071065725e-38 -191.0 735.0 167.0 -1.75 -42.0625 -29.5 18.25 -52.4375 19.375 23.875 -3.625 -67.75 0.5526123046875 -0.0780029296875 -0.17193603515625 0.811767578125 -100.0 -230.0 -259.0 -62.0 906.0 369.0 3828 4953 1535 
311 31.437453985214233 0.09982943534851074 10.017085607155225 9.892658614984233 2.721577071065725e-38 45.0 816.0 131.0 -3.0 -42.375 -28.6875 39.6875 -104.625 16.5 27.5625 1.125 -70.625 0.5594482421875 -0.15850830078125 -0.19793701171875 0.78912353515625 11.0 -67.0 -185.0 28.0 927.0 317.0 3691 4914 1611 
312 31.537587881088257 0.10013389587402344 9.986628316729842 9.892956974908442 2.721577071065725e-38 128.0 885.0 116.0 -10.875 -45.0 -25.0 43.25 -121.4375 1.3125 34.125 4.9375 -75.875 0.57012939453125 -0.2412109375 -0.23699951171875 0.748779296875 35.0 -77.0 -85.0 89.0 949.0 229.0 3574 4873 1684 
313 31.637789011001587 0.10020112991333008 9.979927380708776 9.893232421872424 2.7231554936559403e-38 113.0 1065.0 -120.0 -14.1875 -47.0625 -17.1875 70.375 -122.4375 3.0 42.9375 6.4375 -82.375 0.58245849609375 -0.31903076171875 -0.27947998046875 0.69342041015625 -1.0 168.0 -251.0 114.0 967.0 115.0 3489 4850 1613 
314 31.719486713409424 0.08169770240783691 12.240246304699925 9.899277464261626 2.7231554936559403e-38 213.0 1131.0 -215.0 -16.75 -48.1875 -14.0 61.625 -130.75 -22.4375 51.9375 7.125 -88.0 0.58221435546875 -0.379638671875 -0.3148193359375 0.6463623046875 58.0 159.0 -233.0 121.0 972.0 33.0 3481 4886 1672 
315 31.820415258407593 0.10092854499816895 9.907999763774878 9.8993051298025 2.7231554936559403e-38 184.0 907.0 -197.0 -17.1875 -49.25 -1.0 58.125 -125.6875 -55.5 69.75 3.3125 -94.875 0.57904052734375 -0.44940185546875 -0.37872314453125 0.5650634765625 126.0 -10.0 -91.0 67.0 975.0 -73.0 3424 4963 1747 
316 31.937615633010864 0.11720037460327148 8.532395936318846 9.894289029935628 2.7231554936559403e-38 192.0 1000.0 -326.0 -13.5 -51.5625 4.25 57.75 -97.1875 -32.5 88.125 -2.5625 -101.375 0.58001708984375 -0.51226806640625 -0.4405517578125 0.45501708984375 236.0 40.0 -132.0 -44.0 960.0 -193.0 3364 5031 1750 
317 32.03865027427673 0.10103464126586914 9.89759539372773 9.894299456632032 2.7230120006931934e-38 -38.0 916.0 -444.0 -9.6875 -51.0625 11.875 35.5 -120.125 16.3125 103.8125 -6.0 -105.75 0.55706787109375 -0.56988525390625 -0.4754638671875 0.37261962890625 64.0 -21.0 -179.0 -102.0 938.0 -264.0 3327 5115 1841 
318 32.13923692703247 0.1005866527557373 9.941676878625048 9.894447734461568 2.7230120006931934e-38 204.0 1241.0 -477.0 -7.375 -49.5625 16.375 36.4375 -100.875 28.4375 116.3125 -6.375 -107.3125 0.50164794921875 -0.629638671875 -0.50396728515625 0.31292724609375 314.0 311.0 -186.0 -109.0 930.0 -290.0 3240 5187 1963 
319 32.244685649871826 0.10544872283935547 9.483282234944063 9.893103113606196 2.7230120006931934e-38 206.0 1058.0 -209.0 -5.375 -48.0625 19.6875 -4.3125 -93.125 25.25 127.125 -7.75 -108.9375 0.46258544921875 -0.6688232421875 -0.5211181640625 0.25909423828125 339.0 139.0 106.0 -132.0 918.0 -316.0 3125 5218 2006 
320 32.31952118873596 0.07483553886413574 13.36263512200406 9.901136781430004 2.7230120006931934e-38 215.0 1183.0 -389.0 -3.875 -48.0625 21.6875 9.9375 -12.9375 -4.25 131.8125 -8.3125 -108.4375 0.43975830078125 -0.68060302734375 -0.5350341796875 0.23907470703125 347.0 267.0 -6.0 -142.0 920.0 -307.0 3073 5190 2024 
321 32.44037485122681 0.12085366249084473 8.274469961353095 9.89507678231593 2.72294025421182e-38 154.0 726.0 -357.0 -2.6875 -48.375 21.0 -43.25 25.0 -39.0 131.375 -10.5 -106.8125 0.46319580078125 -0.654296875 -0.54486083984375 0.2459716796875 333.0 -195.0 -77.0 -179.0 922.0 -279.0 3211 5075 1869 
322 32.540522813797 0.10014796257019043 9.985225603557664 9.895354227789905 2.72294025421182e-38 -219.0 713.0 -436.0 -2.0 -49.5 17.6875 -0.625 2.1875 -2.125 129.25 -12.125 -104.4375 0.4847412109375 -0.622314453125 -0.555419921875 0.26312255859375 -12.0 -214.0 -196.0 -206.0 928.0 -239.0 3283 4960 1804 
323 32.62170696258545 0.08118414878845215 12.317675493596388 9.901382547837112 2.72294025421182e-38 -183.0 984.0 -204.0 -0.5 -50.5625 18.5 -11.3125 54.1875 14.9375 127.75 -11.4375 -105.0625 0.4873046875 -0.6246337890625 -0.5479736328125 0.26849365234375 11.0 56.0 45.0 -194.0 927.0 -250.0 3249 4836 1762 
324 32.71915650367737 0.09744954109191895 10.26172097677457 9.90245576665722 2.72294025421182e-38 -236.0 925.0 -353.0 -2.6875 -50.5625 18.0625 21.4375 55.625 -6.3125 119.625 -9.875 -106.8125 0.52099609375 -0.6102294921875 -0.52001953125 0.30029296875 -83.0 -14.0 -88.0 -170.0 925.0 -275.0 3240 4714 1740 
325 32.82714605331421 0.10798954963684082 9.2601552961644 9.90034282822427 2.721146592177484e-38 -122.0 780.0 -424.0 -4.1875 -50.5625 20.1875 13.75 80.75 -2.75 111.8125 -8.875 -108.875 0.5556640625 -0.591064453125 -0.48712158203125 0.32342529296875 30.0 -139.0 -92.0 -156.0 917.0 -310.0 3230 4595 1601 
326 32.94801998138428 0.12087392807006836 8.273082673546595 9.894373021024963 2.721146592177484e-38 -5.0 929.0 -570.0 -8.25 -50.5625 21.0 55.0 80.75 -52.875 103.4375 -7.5 -112.625 0.60198974609375 -0.57305908203125 -0.43658447265625 0.3443603515625 122.0 32.0 -196.0 -128.0 897.0 -374.0 3150 4531 1505 
327 33.0437867641449 0.09576678276062012 10.442033982697454 9.8959602400903 2.721146592177484e-38 -85.0 998.0 -620.0 -7.875 -49.5 24.5625 2.1875 44.25 -24.375 96.6875 -7.9375 -116.3125 0.6546630859375 -0.53973388671875 -0.3955078125 0.35174560546875 49.0 128.0 -189.0 -135.0 870.0 -431.0 3101 4478 1399 
328 33.126477003097534 0.08269023895263672 12.093325798378446 9.901445299158432 2.721146592177484e-38 -215.0 914.0 -513.0 -9.375 -49.5 25.75 -16.3125 57.125 -28.875 93.5625 -8.25 -116.1875 0.671630859375 -0.517333984375 -0.38665771484375 0.363037109375 -84.0 47.0 -63.0 -141.0 871.0 -427.0 3099 4334 1393 
329 33.24403095245361 0.1175539493560791 8.50673248731891 9.896513466448862 2.723944704951048e-38 -246.0 600.0 -352.0 -9.25 -52.875 22.5625 -38.1875 42.625 -5.8125 85.75 -8.5 -115.0625 0.70281982421875 -0.46478271484375 -0.3665771484375 0.39459228515625 -134.0 -276.0 42.0 -145.0 878.0 -411.0 3034 4283 1290 
330 33.344096183776855 0.10006523132324219 9.993481120027448 9.896804465210165 2.723944704951048e-38 -229.0 727.0 -291.0 -12.1875 -53.5625 18.5625 34.8125 -56.0625 12.625 85.3125 -7.4375 -112.9375 0.68585205078125 -0.47247314453125 -0.3751220703125 0.406982421875 -112.0 -133.0 125.0 -127.0 895.0 -379.0 2982 4172 1224 
331 33.44428086280823 0.10018467903137207 9.981566140336264 9.897058374727655 2.723944704951048e-38 -189.0 953.0 -325.0 -15.1875 -54.5625 19.5 16.0 -47.125 76.625 88.9375 -5.375 -115.125 0.65997314453125 -0.52557373046875 -0.376220703125 0.38299560546875 -56.0 115.0 60.0 -92.0 883.0 -413.0 2919 4161 1153 
332 33.5251042842865 0.08082342147827148 12.372651166083577 9.903026615061455 2.723729465506928e-38 24.0 1143.0 -671.0 -15.5625 -53.75 23.25 35.3125 -8.375 74.3125 87.625 -2.3125 -116.1875 0.638427734375 -0.55963134765625 -0.36602783203125 0.38116455078125 64.0 264.0 -238.0 -39.0 879.0 -432.0 2859 4100 1326 
333 33.630361795425415 0.10525751113891602 9.500509647052429 9.901766803035002 2.723729465506928e-38 335.0 1117.0 -579.0 -27.0 -51.0 26.0625 67.625 -0.3125 85.0625 85.0625 2.75 -119.6875 0.6033935546875 -0.61944580078125 -0.33966064453125 0.36993408203125 288.0 266.0 -93.0 47.0 850.0 -485.0 2894 3995 1334 
334 33.752193212509155 0.12183141708374023 8.208063436647501 9.895653236430684 2.723729465506928e-38 -66.0 799.0 -489.0 -31.0 -45.1875 29.6875 4.3125 -32.875 43.0 88.25 4.0 -123.875 0.578857421875 -0.66265869140625 -0.32763671875 0.337890625 -132.0 -13.0 55.0 66.0 812.0 -545.0 2857 3903 1318 
335 33.81333804130554 0.06114482879638672 16.354612805115806 9.90733300541852 2.723729465506928e-38 -102.0 838.0 -609.0 -31.0 -46.0 28.375 -28.8125 -24.6875 30.3125 89.875 4.5 -123.0 0.56011962890625 -0.6766357421875 -0.33770751953125 0.33819580078125 -76.0 -29.0 -252.0 77.0 819.0 -532.0 2808 3842 1321 
336 33.90949273109436 0.09615468978881836 10.399908753241988 9.90872976675037 2.724231690876542e-38 150.0 808.0 -332.0 -31.25 -44.1875 28.375 -2.0 -46.3125 41.0625 93.6875 5.9375 -121.875 0.5146484375 -0.70550537109375 -0.3555908203125 0.33306884765625 48.0 -19.0 182.0 101.0 828.0 -515.0 2799 3781 1294 
337 33.980358362197876 0.07086563110351562 14.111212790009152 9.917493994851519 2.724231690876542e-38 129.0 807.0 -501.0 -30.75 -40.875 29.0625 4.0625 -8.3125 -4.3125 97.125 5.0 -122.3125 0.50823974609375 -0.7130126953125 -0.3623046875 0.3194580078125 44.0 -17.0 21.0 85.0 825.0 -523.0 2799 3731 1467 
338 34.092358112335205 0.1119997501373291 8.928591347515013 9.914245265354811 2.724231690876542e-38 197.0 648.0 -478.0 -30.0625 -40.5 28.0 29.375 30.4375 -23.375 93.25 5.0 -125.125 0.53607177734375 -0.70660400390625 -0.3358154296875 0.317138671875 131.0 -152.0 87.0 86.0 798.0 -562.0 2743 3674 1598 
339 34.16259789466858 0.07023978233337402 14.236946168964078 9.923132925816054 2.724231690876542e-38 244.0 641.0 -494.0 -28.5625 -40.875 28.375 43.1875 53.9375 -14.0 86.75 6.25 -127.375 0.5596923828125 -0.6988525390625 -0.30596923828125 0.32354736328125 127.0 -116.0 104.0 107.0 774.0 -591.0 2588 3569 1590 
340 34.278571128845215 0.11597323417663574 8.622679250946184 9.918733156117234 2.723944704951048e-38 117.0 1056.0 -816.0 -28.1875 -37.0 29.6875 12.4375 3.3125 -0.3125 85.25 5.6875 -133.1875 0.58404541015625 -0.7069091796875 -0.27020263671875 0.29339599609375 20.0 345.0 -147.0 97.0 710.0 -668.0 2471 3473 1562 
341 34.37884473800659 0.10027360916137695 9.97271374156518 9.918890602598312 2.723944704951048e-38 68.0 864.0 -1061.0 -27.0625 -35.5 30.5 7.625 36.1875 20.0625 88.875 4.6875 -133.5625 0.5784912109375 -0.7132568359375 -0.27716064453125 0.282470703125 -11.0 155.0 -388.0 80.0 708.0 -673.0 2350 3415 1624 
342 34.48951983451843 0.11067509651184082 9.035456317790631 9.916055707383705 2.723944704951048e-38 104.0 327.0 -585.0 -29.25 -33.0625 27.5625 10.8125 11.1875 16.6875 70.8125 11.25 -134.25 0.57745361328125 -0.7135009765625 -0.23004150390625 0.32342529296875 9.0 -293.0 119.0 188.0 689.0 -670.0 2250 3395 1614 
343 34.56335186958313 0.07383203506469727 13.544256217829071 9.923806038668696 2.723944704951048e-38 -86.0 598.0 -907.0 -31.1875 -32.375 27.5625 23.125 -23.125 -14.5 282.4375 9.625 -136.8125 0.58184814453125 -0.7236328125 -0.22607421875 0.29437255859375 -254.0 -31.0 -202.0 159.0 656.0 -710.0 2130 3378 1581 
344 34.66352939605713 0.10017752647399902 9.982278812399596 9.923975024860825 2.7233707331000606e-38 -24.0 550.0 -711.0 -27.1875 -30.75 32.5625 -0.625 -80.625 18.375 284.9375 5.1875 -140.1875 0.5718994140625 -0.745361328125 -0.23974609375 0.2447509765625 -113.0 -74.0 38.0 88.0 624.0 -750.0 2053 3354 1593 
345 34.769184589385986 0.10565519332885742 9.46475008462146 9.922579550666782 2.7233707331000606e-38 168.0 474.0 -908.0 -24.1875 -28.1875 34.5625 23.875 -59.1875 99.625 294.1875 2.6875 -142.625 0.51416015625 -0.79541015625 -0.25518798828125 0.194580078125 122.0 -119.0 -129.0 46.0 594.0 -778.0 1970 3356 1574 
346 34.88035535812378 0.11117076873779297 8.995170325381098 9.919623709321389 2.7233707331000606e-38 393.0 537.0 -857.0 -23.5 -21.0625 36.25 -13.6875 -14.625 98.0625 304.4375 7.1875 -142.6875 0.44085693359375 -0.8367919921875 -0.250244140625 0.20684814453125 270.0 -51.0 -83.0 123.0 589.0 -773.0 1908 3361 1547 
347 34.99933052062988 0.11897516250610352 8.405115647130966 9.914475358191938 2.7233707331000606e-38 391.0 767.0 -1075.0 -26.75 -18.0 38.0 -32.8125 12.6875 97.0 315.25 13.1875 -141.0 0.3563232421875 -0.8668212890625 -0.255615234375 0.23724365234375 166.0 167.0 -333.0 224.0 600.0 -742.0 1850 3356 1487 
348 35.089659452438354 0.09032893180847168 11.070650122602391 9.91745162051773 2.7189941977362813e-38 185.0 660.0 -516.0 -28.0 -15.6875 36.75 -60.1875 -72.25 33.75 322.1875 13.6875 -137.5 0.29986572265625 -0.87652587890625 -0.293701171875 0.2357177734375 -47.0 16.0 186.0 232.0 643.0 -702.0 1833 3361 1446 
349 35.153204917907715 0.06354546546936035 15.736764104468932 9.927971028957668 2.7189941977362813e-38 273.0 654.0 -1021.0 -25.6875 -17.5625 37.1875 -36.25 12.125 44.6875 105.125 15.125 -134.25 0.26300048828125 -0.876220703125 -0.3206787109375 0.24542236328125 17.0 -22.0 -360.0 256.0 677.0 -660.0 1784 3331 1443 
350 35.2588005065918 0.10559558868408203 9.47009257168661 9.926599741660691 2.7189941977362813e-38 360.0 347.0 -417.0 -26.1875 -17.5625 38.375 -32.625 17.125 7.625 105.5625 15.5625 -131.75 0.2598876953125 -0.86798095703125 -0.3370361328125 0.255859375 96.0 -356.0 211.0 263.0 704.0 -629.0 1755 3279 1436 
351 35.33085346221924 0.0720529556274414 13.878681190687333 9.934659528543204 2.7189941977362813e-38 306.0 500.0 -466.0 -26.5625 -18.1875 36.375 11.9375 -6.6875 -53.375 103.625 15.625 -131.0 0.2757568359375 -0.8602294921875 -0.33721923828125 0.26495361328125 42.0 -211.0 153.0 264.0 712.0 -619.0 1710 3207 1424 
352 35.45370292663574 0.1228494644165039 8.140043627782047 9.928441063783739 2.716626563850958e-38 250.0 650.0 -783.0 -25.5 -20.75 36.0 38.625 19.5625 -79.1875 105.5 10.5625 -132.9375 0.35601806640625 -0.84149169921875 -0.323486328125 0.2459716796875 70.0 -55.0 -126.0 180.0 705.0 -656.0 1672 3121 1423 
353 35.53315186500549 0.07944893836975098 12.58670059687966 9.934384693513465 2.716626563850958e-38 268.0 729.0 -768.0 -24.375 -20.0 36.25 50.0 36.9375 -79.375 104.6875 8.0 -135.0 0.40972900390625 -0.82611083984375 -0.3062744140625 0.23626708984375 131.0 43.0 -81.0 136.0 686.0 -687.0 1641 3044 1418 
354 35.61687970161438 0.08372783660888672 11.943459194714961 9.939107607563795 2.716626563850958e-38 193.0 667.0 -797.0 -24.375 -21.1875 37.0625 10.0625 52.0625 -36.375 301.4375 7.4375 -136.625 0.45367431640625 -0.80914306640625 -0.28558349609375 0.24066162109375 66.0 0.0 -90.0 127.0 667.0 -707.0 1609 2968 1419 
355 35.68774342536926 0.07086372375488281 14.11159260355826 9.947392744020963 2.716626563850958e-38 315.0 677.0 -847.0 -25.75 -19.25 35.0625 13.875 96.6875 6.3125 298.75 11.4375 -136.875 0.4716796875 -0.797119140625 -0.25640869140625 0.2763671875 120.0 20.0 -145.0 194.0 656.0 -701.0 1569 2873 1415 
356 35.80217957496643 0.11443614959716797 8.738497437393224 9.943528696474168 2.719065944217655e-38 231.0 631.0 -615.0 -30.5625 -17.75 31.875 9.625 -37.6875 -15.0 292.125 14.6875 -137.1875 0.51580810546875 -0.76727294921875 -0.21844482421875 0.31219482421875 -17.0 -12.0 80.0 248.0 644.0 -695.0 1463 2790 1388 
357 35.91735887527466 0.11517930030822754 8.682115599972676 9.939483614029236 2.719065944217655e-38 203.0 924.0 -968.0 -33.1875 -18.1875 29.0625 40.0 -14.1875 -11.1875 289.0 16.5625 -139.875 0.54034423828125 -0.758056640625 -0.18072509765625 0.3173828125 -77.0 318.0 -249.0 280.0 605.0 -719.0 1419 2722 1377 
358 36.03997492790222 0.12261605262756348 8.155539006278572 9.933414235614123 2.719065944217655e-38 164.0 726.0 -688.0 -33.875 -18.1875 27.5 -63.625 63.5625 -20.625 62.6875 16.5 -132.9375 0.54132080078125 -0.73046875 -0.21673583984375 0.3555908203125 -137.0 -5.0 -22.0 283.0 695.0 -630.0 1229 2647 1658 
359 36.119792461395264 0.07981753349304199 12.528575567762614 9.939149024283521 2.719065944217655e-38 292.0 547.0 -562.0 -35.0 -20.375 24.25 -51.75 30.125 -7.5 60.625 18.375 -126.9375 0.5340576171875 -0.70721435546875 -0.23388671875 0.39984130859375 -17.0 -195.0 -2.0 309.0 743.0 -559.0 998 2598 2096 
360 36.24013042449951 0.12033796310424805 8.309929586673377 9.933739083803856 2.721146592177484e-38 335.0 616.0 -621.0 -36.1875 -23.75 21.0 -58.25 -15.4375 12.0 66.75 16.5625 -122.125 0.52545166015625 -0.69195556640625 -0.2725830078125 0.413330078125 55.0 -179.0 -121.0 280.0 795.0 -499.0 1022 2520 1893 
361 36.35610580444336 0.11597537994384766 8.622519714823738 9.929556315568853 2.721146592177484e-38 525.0 709.0 -457.0 -35.6875 -26.0 19.75 42.0 53.9375 -56.0 69.4375 12.3125 -120.5625 0.56768798828125 -0.65283203125 -0.28570556640625 0.41229248046875 308.0 -119.0 -22.0 209.0 824.0 -487.0 1011 2476 1931 
362 36.440056800842285 0.08395099639892578 11.911710913448976 9.934122824738095 2.721146592177484e-38 311.0 853.0 -512.0 -34.875 -29.0 17.0 -20.4375 -8.5625 -31.625 70.9375 10.9375 -120.0 0.57696533203125 -0.64251708984375 -0.2926025390625 0.41064453125 125.0 19.0 -30.0 186.0 833.0 -481.0 1054 2393 1865 
363 36.53937125205994 0.09931445121765137 10.069028099530675 9.934489498900055 2.721146592177484e-38 167.0 735.0 -471.0 -31.1875 -32.5625 16.1875 -34.75 8.75 -50.1875 79.8125 5.6875 -117.125 0.5887451171875 -0.616943359375 -0.33526611328125 0.4005126953125 70.0 -132.0 -25.0 97.0 868.0 -445.0 1077 2296 1773 
364 36.65692663192749 0.11755537986755371 8.50662897033442 9.929910481992314 2.722294535879459e-38 160.0 916.0 -558.0 -28.875 -34.875 14.5 -10.0 8.25 -41.5 78.3125 3.5 -116.4375 0.6204833984375 -0.5809326171875 -0.332763671875 0.40838623046875 137.0 68.0 -181.0 60.0 876.0 -436.0 1111 2209 1802 
365 36.740973472595215 0.08404684066772461 11.898127187831543 9.934412877553461 2.722294535879459e-38 204.0 801.0 -591.0 -25.1875 -36.0 13.0 1.8125 41.0625 -41.5 79.1875 1.25 -116.125 0.64044189453125 -0.5570068359375 -0.337158203125 0.40728759765625 183.0 -78.0 -159.0 21.0 879.0 -432.0 1018 2168 1692 
366 36.85732126235962 0.1163477897644043 8.594920470985537 9.930184491561949 2.722294535879459e-38 176.0 838.0 -434.0 -23.375 -37.1875 9.25 -15.5625 83.3125 -36.9375 68.8125 0.75 -113.9375 0.68438720703125 -0.48468017578125 -0.3079833984375 0.44927978515625 159.0 -56.0 -37.0 13.0 895.0 -398.0 972 2069 1546 
367 36.97329235076904 0.11597108840942383 8.6228387929723 9.926083847720053 2.720787859770617e-38 103.0 794.0 -620.0 -21.5625 -39.0625 4.25 -2.25 65.0 -11.375 58.0625 2.3125 -113.9375 0.71380615234375 -0.43975830078125 -0.2647705078125 0.4764404296875 63.0 -100.0 -223.0 40.0 895.0 -397.0 930 1850 1411 
368 37.08262014389038 0.10932779312133789 9.146804956450058 9.92378636062022 2.720787859770617e-38 169.0 787.0 -385.0 -20.0625 -39.1875 3.1875 -1.8125 82.3125 -11.75 47.0625 4.5625 -114.0 0.73663330078125 -0.4007568359375 -0.21759033203125 0.49945068359375 90.0 -105.0 12.0 78.0 892.0 -398.0 936 1755 1327 
369 37.159128189086914 0.0765080451965332 13.070520850862268 9.930265266782277 2.720787859770617e-38 148.0 777.0 -231.0 -18.25 -37.75 0.5625 16.6875 92.0 -6.5 36.125 7.0 -113.6875 0.75341796875 -0.3634033203125 -0.17010498046875 0.52093505859375 25.0 -114.0 159.0 114.0 891.0 -390.0 944 1735 1287 
370 37.259223222732544 0.10009503364562988 9.9905056582561 9.930427099571311 2.720787859770617e-38 49.0 868.0 -297.0 -19.0 -37.0625 -2.25 26.75 59.9375 8.0625 26.625 9.5 -114.3125 0.76947021484375 -0.3360595703125 -0.12066650390625 0.529541015625 -114.0 31.0 84.0 166.0 878.0 -402.0 978 1730 1281 
371 37.341570138931274 0.08234691619873047 12.143745584675784 9.935307985702662 2.7217205640284717e-38 -18.0 1150.0 -774.0 -17.1875 -36.25 -2.0 71.625 21.3125 31.8125 20.625 11.5 -117.6875 0.7835693359375 -0.3375244140625 -0.09356689453125 0.51312255859375 -214.0 300.0 -327.0 195.0 850.0 -447.0 1022 1701 1295 
372 37.459219455718994 0.11764931678771973 8.499836865218246 9.930799557629486 2.7217205640284717e-38 -61.0 1041.0 -542.0 -19.0 -35.5625 0.75 -97.1875 -62.5 32.375 13.625 15.875 -117.9375 0.76776123046875 -0.36083984375 -0.06903076171875 0.52490234375 -320.0 189.0 -107.0 267.0 839.0 -430.0 1027 1559 1404 
373 37.57537627220154 0.11615681648254395 8.609051369363932 9.926713635491852 2.7217205640284717e-38 152.0 893.0 -263.0 -20.75 -32.25 -1.1875 -87.625 -88.875 21.4375 30.4375 14.9375 -109.3125 0.69598388671875 -0.41900634765625 -0.153076171875 0.5626220703125 -101.0 0.0 50.0 253.0 893.0 -313.0 1115 1267 1284 
374 37.676002979278564 0.10062670707702637 9.937719607922116 9.926743030721607 2.7217205640284717e-38 202.0 620.0 -171.0 -22.25 -31.1875 -2.0625 -41.8125 -113.1875 4.1875 42.125 14.3125 -104.875 0.64044189453125 -0.46295166015625 -0.22021484375 0.57177734375 -40.0 -297.0 72.0 242.0 918.0 -244.0 968 1218 1387 
375 37.806843280792236 0.13084030151367188 7.642905040963293 9.918839222171155 2.72294025421182e-38 187.0 633.0 -533.0 -23.25 -29.0625 1.875 -9.0 -107.1875 48.25 64.625 12.375 -103.6875 0.55426025390625 -0.55560302734375 -0.3314208984375 0.52374267578125 -22.0 -297.0 -306.0 210.0 930.0 -227.0 845 1209 1365 
376 37.897236824035645 0.0903935432434082 11.062737050889123 9.921567679085477 2.72294025421182e-38 340.0 773.0 -585.0 -24.5 -26.6875 5.875 -8.9375 -119.75 87.4375 71.75 15.6875 -105.6875 0.4866943359375 -0.61895751953125 -0.35455322265625 0.4925537109375 109.0 -145.0 -372.0 257.0 912.0 -251.0 747 1221 1317 
377 37.95682954788208 0.05959272384643555 16.780572114422885 9.932336406664815 2.72294025421182e-38 459.0 883.0 -454.0 -24.875 -25.6875 9.25 -44.9375 -59.125 44.75 73.75 17.9375 -106.125 0.449951171875 -0.65545654296875 -0.36407470703125 0.485107421875 156.0 -12.0 -195.0 302.0 896.0 -259.0 678 1266 1301 
378 38.04459762573242 0.0877680778503418 11.393664125869947 9.935707658643501 2.72294025421182e-38 388.0 985.0 -326.0 -25.375 -24.0625 10.1875 12.0 -41.5 -33.25 82.1875 16.3125 -105.9375 0.42047119140625 -0.674560546875 -0.3990478515625 0.45709228515625 112.0 80.0 -67.0 275.0 904.0 -258.0 613 1266 1348 
379 38.16065335273743 0.11605572700500488 8.616550219506834 9.931695783526534 2.723442479581434e-38 46.0 954.0 -598.0 -23.1875 -25.0625 13.0 9.5 -38.8125 -22.3125 93.0 11.0625 -107.625 0.42498779296875 -0.68408203125 -0.43017578125 0.4078369140625 -142.0 37.0 -306.0 193.0 916.0 -288.0 446 1264 1632 
380 38.26628255844116 0.10562920570373535 9.467078667662813 9.930413267075398 2.723442479581434e-38 187.0 1150.0 -666.0 -19.5 -25.5 15.0 -44.3125 -9.9375 9.5 99.0 8.6875 -105.9375 0.4158935546875 -0.68060302734375 -0.45623779296875 0.39154052734375 -67.0 245.0 -500.0 147.0 930.0 -273.0 466 1229 1567 
381 38.36057424545288 0.09429168701171875 10.605388785500445 9.932072381454569 2.723442479581434e-38 320.0 934.0 -314.0 -19.25 -27.6875 13.0625 -72.125 47.4375 19.0625 95.3125 10.75 -98.625 0.39495849609375 -0.646484375 -0.4825439453125 0.43951416015625 137.0 -18.0 -169.0 183.0 952.0 -145.0 487 1205 1630 
382 38.460636138916016 0.10006189346313477 9.993814482117754 9.932233014042039 2.7221510429167123e-38 389.0 784.0 270.0 -19.875 -28.375 9.0 -95.4375 68.875 37.625 88.75 14.75 -89.5 0.36083984375 -0.604736328125 -0.4967041015625 0.50726318359375 139.0 -163.0 262.0 250.0 948.0 7.0 446 1174 1800 
383 38.57262110710144 0.1119849681854248 8.929769916478426 9.929322638888221 2.7221510429167123e-38 543.0 561.0 302.0 -22.5625 -27.6875 2.5 -43.75 -38.125 13.25 93.8125 15.5625 -81.8125 0.3018798828125 -0.5836181640625 -0.55072021484375 0.51470947265625 280.0 -374.0 168.0 263.0 935.0 133.0 339 1152 2019 
384 38.7049605846405 0.1323394775390625 7.556324224605096 9.92120891481762 2.7221510429167123e-38 405.0 735.0 254.0 -20.6875 -27.875 2.1875 69.1875 -11.5625 -7.125 97.3125 14.9375 -85.5 0.3017578125 -0.60931396484375 -0.550537109375 0.48431396484375 166.0 -57.0 100.0 253.0 944.0 73.0 443 1026 1918 
385 38.81029272079468 0.1053321361541748 9.493778788804763 9.92004885842347 2.7221510429167123e-38 89.0 1037.0 -148.0 -19.5625 -29.0625 3.375 33.625 47.5 59.75 89.8125 13.5 -79.5625 0.33392333984375 -0.54852294921875 -0.5411376953125 0.54290771484375 -140.0 99.0 -320.0 229.0 937.0 171.0 446 913 1891 
386 38.914103746414185 0.10381102561950684 9.632888164165221 9.919282800790928 2.7230120006931934e-38 126.0 641.0 92.0 -18.5 -27.875 -1.0625 -10.0 28.875 -24.625 91.3125 12.9375 -77.25 0.32330322265625 -0.53662109375 -0.5574951171875 0.544677734375 -92.0 -290.0 -118.0 219.0 932.0 210.0 459 808 2062 
387 39.00768518447876 0.0935814380645752 10.68587981422082 9.921121906356753 2.7230120006931934e-38 -144.0 607.0 173.0 -15.875 -27.1875 -1.0625 91.4375 2.0625 -62.0625 92.0 9.75 -81.6875 0.3673095703125 -0.54229736328125 -0.54376220703125 0.52471923828125 -332.0 -328.0 45.0 166.0 956.0 139.0 439 691 2053 
388 39.130086183547974 0.12240099906921387 8.169867955363108 9.915643890483748 2.7230120006931934e-38 -430.0 1286.0 -90.0 -12.875 -25.0 2.875 106.5 -104.5625 140.0 96.875 7.75 -90.5 0.39483642578125 -0.590576171875 -0.52679443359375 0.46673583984375 -563.0 314.0 -81.0 132.0 971.0 -9.0 355 683 1972 
389 39.2470440864563 0.1169579029083252 8.55008490348726 9.911574465151617 2.7218640569912185e-38 185.0 1135.0 -734.0 -15.75 -19.5 11.0625 80.9375 -64.3125 71.1875 96.3125 17.125 -104.375 0.321533203125 -0.71807861328125 -0.4599609375 0.41156005859375 -103.0 228.0 -500.0 289.0 907.0 -233.0 273 695 1905 
390 39.34620475769043 0.09916067123413086 10.084643312255055 9.912010634869997 2.7218640569912185e-38 550.0 1168.0 -2049.0 -16.25 -14.0 15.25 -111.625 15.5 73.5 90.625 23.9375 -108.1875 0.26904296875 -0.75823974609375 -0.42059326171875 0.420166015625 146.0 596.0 -1667.0 386.0 850.0 -297.0 388 701 1812 
391 39.463372468948364 0.11716771125793457 8.534774548924888 9.907921587483614 2.7218640569912185e-38 53.0 623.0 -121.0 -18.1875 -19.1875 9.25 -180.625 203.6875 55.625 77.875 25.125 -74.5625 0.2613525390625 -0.55792236328125 -0.49505615234375 0.61260986328125 -390.0 -305.0 -249.0 416.0 855.0 236.0 528 707 1802 
392 39.56302189826965 0.09964942932128906 10.035180400038282 9.908242120836192 2.7218640569912185e-38 256.0 641.0 348.0 -19.375 -20.1875 -3.5625 14.5 180.1875 140.5625 58.4375 28.5 -58.4375 0.245849609375 -0.46600341796875 -0.4300537109375 0.7454833984375 -208.0 -103.0 -89.0 464.0 744.0 438.0 615 740 1824 
393 39.66329336166382 0.10027146339416504 9.972927153451634 9.908405648933087 2.7199986484755093e-38 382.0 544.0 476.0 -21.1875 -16.5 -11.25 57.3125 150.0 114.8125 40.1875 30.0 -52.4375 0.27069091796875 -0.40380859375 -0.30047607421875 0.820556640625 -54.0 -90.0 -68.0 490.0 673.0 517.0 822 721 1806 
394 39.779746294021606 0.11645293235778809 8.587160320940793 9.904537778794563 2.7199986484755093e-38 277.0 417.0 450.0 -20.375 -15.0 -17.75 12.25 177.625 36.8125 20.375 24.4375 -45.625 0.31378173828125 -0.2889404296875 -0.1600341796875 0.89019775390625 -128.0 -221.0 -173.0 405.0 638.0 623.0 1125 742 1802 
395 39.88175392150879 0.10200762748718262 9.803188493190387 9.904278552477878 2.7199986484755093e-38 103.0 544.0 520.0 -15.1875 -14.1875 -23.0625 59.875 184.75 53.6875 8.875 14.9375 -45.8125 0.3668212890625 -0.16998291015625 -0.071044921875 0.911865234375 -126.0 -89.0 -142.0 252.0 679.0 660.0 1141 829 1881 
