Index,Time,Difference,Hz,AveHz,Pressure,Acceleration-X,Acceleration-Y,Acceleration-Z,Magnetic-X,Magnetic-Y,Magnetic-Z,Angular-Vel-X,Angular-Vel-Y,Angular-Vel-Z,Heading,Roll,Pitch,Quaternion-X,Quaternion-Y,Quaternion-Z,Quaternion-W,Linear-Acceleration-X,Linear-Acceleration-Y,Linear-Acceleration-Z,Gravity-X,Gravity-Y,Gravity-Z,
0,3.0994415283203125e-06,3.0994415283203125e-06,322638.76923076925,0.0,2.561295431677481e-38,700.0,690.0,-447.0,-25.875,-24.75,17.6875,-98.375,9.625,-114.625,145.875,38.9375,-110.1875,0.31536865234375,0.7266845703125,0.5859375,-0.170654296875,94.0,-39.0,-197.0,605.0,729.0,-250.0,
1,0.014052152633666992,0.014049053192138672,71.1791738791026,71.16347410034103,2.561295431677481e-38,710.0,722.0,-485.0,-25.0,-26.875,17.25,-100.25,9.0625,-74.75,149.0,37.4375,-107.6875,0.31219482421875,0.723388671875,0.59344482421875,-0.16448974609375,113.0,-19.0,-248.0,596.0,741.0,-236.0,
2,0.029763221740722656,0.015711069107055664,63.64939223333384,67.19702649876638,2.561295431677481e-38,710.0,751.0,-490.0,-25.0,-26.875,17.25,-100.3125,8.8125,-62.625,150.25,36.875,-106.5,0.309326171875,0.7198486328125,0.60064697265625,-0.15924072265625,121.0,0.0,-267.0,589.0,751.0,-223.0,
3,0.04480099678039551,0.015037775039672852,66.49919934044678,66.96279582138163,2.561295431677481e-38,621.0,700.0,-552.0,-25.0,-26.875,17.25,-89.5,-0.3125,-53.625,152.6875,35.875,-104.4375,0.30462646484375,0.713134765625,0.613525390625,-0.1490478515625,46.0,-68.0,-353.0,575.0,769.0,-198.0,
4,0.05898594856262207,0.014184951782226562,70.49724351216888,67.81276045350741,2.561295431677481e-38,584.0,666.0,-525.0,-25.0,-26.875,17.25,-80.1875,-6.125,-45.125,153.75,35.4375,-103.625,0.30322265625,0.710205078125,0.6187744140625,-0.144287109375,15.0,-109.0,-336.0,568.0,776.0,-188.0,
5,0.07536816596984863,0.016382217407226562,61.04179764815461,66.34100665260014,2.561295431677481e-38,456.0,597.0,-419.0,-21.5625,-29.25,14.5,-58.75,-15.0625,-28.9375,155.625,34.75,-102.5,0.30303955078125,0.70513916015625,0.62664794921875,-0.13531494140625,-102.0,-188.0,-244.0,559.0,786.0,-174.0,
6,0.09111213684082031,0.01574397087097168,63.51637767850382,65.85291716385103,2.562371628898082e-38,432.0,626.0,-389.0,-21.5625,-29.25,14.5,-49.625,-17.75,-26.25,156.375,34.5,-102.0625,0.302978515625,0.703369140625,0.62939453125,-0.131591796875,-119.0,-176.0,-219.0,551.0,794.0,-165.0,
7,0.1058340072631836,0.014721870422363281,67.92615145429812,66.14131110610498,2.562371628898082e-38,439.0,637.0,-302.0,-21.5625,-29.25,14.5,-38.4375,-20.25,-34.8125,157.875,33.8125,-101.5,0.30218505859375,0.7010498046875,0.6339111328125,-0.123779296875,-106.0,-160.0,-139.0,545.0,798.0,-162.0,
8,0.12204623222351074,0.01621222496032715,61.681848262474446,65.54893055075317,2.562371628898082e-38,537.0,697.0,-265.0,-23.0625,-31.5,13.5625,-40.0,-9.5,-47.1875,159.5,32.875,-100.8125,0.29925537109375,0.69940185546875,0.63873291015625,-0.1153564453125,4.0,-111.0,-110.0,533.0,808.0,-154.0,
9,0.13994431495666504,0.017898082733154297,55.87190622086053,64.31129412285827,2.562371628898082e-38,477.0,695.0,-250.0,-23.0625,-31.5,13.5625,-47.3125,6.6875,-53.4375,161.0,31.9375,-99.75,0.29345703125,0.6983642578125,0.641845703125,-0.1077880859375,13.0,-135.0,-115.0,526.0,814.0,-148.0,
10,0.15415215492248535,0.014207839965820312,70.38367566116257,64.87097118446674,2.562371628898082e-38,447.0,725.0,-253.0,-23.0625,-31.5,13.5625,-49.625,4.0625,-51.5625,161.75,31.4375,-99.1875,0.2906494140625,0.695556640625,0.64874267578125,-0.10400390625,-64.0,-100.0,-119.0,511.0,825.0,-133.0,
11,0.16837406158447266,0.014221906661987305,70.3140601163434,65.33072788341178,2.562371628898082e-38,439.0,751.0,-230.0,-20.75,-32.5,13.5625,-49.8125,-3.25,-50.0625,162.5625,30.9375,-98.6875,0.288330078125,0.694091796875,0.65203857421875,-0.099853515625,-65.0,-79.0,-103.0,504.0,831.0,-127.0,
12,0.18441319465637207,0.016039133071899414,62.34750940198891,65.07126576468839,2.562371628898082e-38,497.0,705.0,-182.0,-20.75,-32.5,13.5625,-45.625,-11.1875,-58.1875,164.375,29.875,-97.8125,0.28375244140625,0.6917724609375,0.6578369140625,-0.0902099609375,8.0,-136.0,-66.0,488.0,842.0,-115.0,
13,0.20091009140014648,0.016496896743774414,60.61746130388912,64.70556013091596,2.562371628898082e-38,499.0,713.0,-167.0,-20.75,-32.5,13.5625,-42.5,-4.5625,-60.5625,166.125,28.6875,-96.9375,0.278076171875,0.68994140625,0.6634521484375,-0.08050537109375,28.0,-140.0,-62.0,470.0,853.0,-104.0,
14,0.222337007522583,0.021426916122436523,46.67027183407328,62.96747516752471,2.562371628898082e-38,465.0,703.0,-195.0,-19.25,-34.875,11.1875,-35.5,-0.875,-52.0625,167.5625,27.625,-96.1875,0.272216796875,0.68829345703125,0.66851806640625,-0.07257080078125,10.0,-160.0,-102.0,454.0,863.0,-93.0,
15,0.23697304725646973,0.014636039733886719,68.32449338632958,63.2983378222161,2.562371628898082e-38,444.0,722.0,-186.0,-19.25,-34.875,11.1875,-30.875,-2.4375,-48.25,168.25,27.125,-95.875,0.269775390625,0.6876220703125,0.6705322265625,-0.0689697265625,-3.0,-145.0,-96.0,447.0,867.0,-89.0,
16,0.25038814544677734,0.013415098190307617,74.5428759308298,63.90078879912855,2.562371628898082e-38,427.0,828.0,-135.0,-19.25,-34.875,11.1875,-22.8125,-9.75,-50.8125,169.5625,26.1875,-95.375,0.26513671875,0.6871337890625,0.67364501953125,-0.0614013671875,-5.0,-46.0,-52.0,433.0,875.0,-83.0,
17,0.26616334915161133,0.015775203704833984,63.39062358310915,63.87055187796161,2.562371628898082e-38,459.0,819.0,-117.0,-17.0,-34.75,11.5625,-20.1875,-16.125,-56.375,170.3125,25.625,-95.25,0.26287841796875,0.68731689453125,0.67474365234375,-0.05682373046875,34.0,-60.0,-36.0,424.0,880.0,-81.0,
18,0.28198909759521484,0.015825748443603516,63.188164753382146,63.83225505348561,2.562371628898082e-38,481.0,788.0,-143.0,-17.0,-34.75,11.5625,-19.1875,-12.4375,-57.0625,171.9375,24.4375,-94.9375,0.25787353515625,0.68780517578125,0.6768798828125,-0.047607421875,75.0,-100.0,-65.0,406.0,889.0,-77.0,
19,0.2984352111816406,0.01644611358642578,60.80463902580458,63.66540973757877,2.562371628898082e-38,492.0,791.0,-182.0,-17.0,-34.75,11.5625,-16.8125,-10.1875,-47.3125,172.5625,24.0,-94.8125,0.25579833984375,0.6878662109375,0.6778564453125,-0.0439453125,93.0,-101.0,-107.0,399.0,892.0,-75.0,
20,0.3146331310272217,0.016197919845581055,61.736322289112294,63.56609659861162,2.562371628898082e-38,458.0,791.0,-162.0,-16.25,-36.25,11.1875,-14.0625,-4.75,-31.375,173.4375,23.3125,-94.5625,0.25262451171875,0.687744140625,0.67950439453125,-0.03863525390625,69.0,-105.0,-90.0,388.0,897.0,-72.0,
21,0.33031225204467773,0.015679121017456055,63.779085504006815,63.576206665078715,2.562371628898082e-38,455.0,842.0,-118.0,-16.25,-36.25,11.1875,-7.875,-8.0625,-32.875,174.3125,22.6875,-94.4375,0.24969482421875,0.68798828125,0.6805419921875,-0.0338134765625,76.0,-59.0,-48.0,378.0,901.0,-70.0,
22,0.3446042537689209,0.014292001724243164,69.96920510467929,63.84134774712445,2.562371628898082e-38,482.0,836.0,-75.0,-16.25,-36.25,11.1875,-6.8125,-9.375,-35.3125,174.75,22.375,-94.375,0.2481689453125,0.6883544921875,0.68084716796875,-0.03106689453125,109.0,-67.0,-5.0,373.0,904.0,-69.0,
23,0.36086511611938477,0.016260862350463867,61.49735348884946,63.73572554569371,2.562371628898082e-38,474.0,859.0,-78.0,-15.1875,-37.0,12.0,-14.4375,0.375,-31.9375,175.5625,21.6875,-94.125,0.24462890625,0.68841552734375,0.68231201171875,-0.02642822265625,111.0,-49.0,-11.0,363.0,908.0,-66.0,
24,0.37630414962768555,0.015439033508300781,64.77089381678918,63.77819650340169,2.562371628898082e-38,421.0,841.0,-117.0,-15.1875,-37.0,12.0,-21.0625,11.9375,-29.125,175.8125,21.4375,-93.875,0.2423095703125,0.68780517578125,0.683837890625,-0.02496337890625,63.0,-69.0,-55.0,358.0,910.0,-62.0,
25,0.39502716064453125,0.018723011016845703,53.41021265758309,63.28678756977036,2.562371628898082e-38,312.0,834.0,-149.0,-15.1875,-37.0,12.0,-33.4375,24.375,-41.3125,176.25,20.75,-93.125,0.23553466796875,0.68560791015625,0.6884765625,-0.022216796875,-35.0,-80.0,-99.0,347.0,915.0,-50.0,
26,0.4117162227630615,0.016689062118530273,59.9194845640652,63.15029275628698,2.562371628898082e-38,423.0,891.0,-136.0,-13.25,-37.1875,10.0,-30.875,18.875,-66.5625,177.3125,19.625,-92.3125,0.226318359375,0.68408203125,0.69317626953125,-0.01617431640625,93.0,-31.0,-99.0,329.0,922.0,-37.0,
27,0.4284942150115967,0.016777992248535156,59.60188711419315,63.011352438607084,2.562371628898082e-38,403.0,848.0,-125.0,-13.25,-37.1875,10.0,-21.375,20.75,-70.125,178.4375,18.1875,-91.6875,0.215576171875,0.68389892578125,0.6968994140625,-0.00921630859375,106.0,-56.0,-87.0,317.0,927.0,-32.0,
28,0.443859338760376,0.015365123748779297,65.0824566303572,63.08304806247687,2.562371628898082e-38,337.0,891.0,-142.0,-13.25,-37.1875,10.0,-14.0625,18.4375,-55.3125,178.875,17.6875,-91.5,0.2113037109375,0.68408203125,0.6981201171875,-0.00677490234375,38.0,-42.0,-117.0,298.0,933.0,-24.0,
29,0.45949721336364746,0.015637874603271484,63.947309041012346,63.112461091356636,2.562371628898082e-38,347.0,977.0,-174.0,-12.5625,-38.0,9.1875,-1.25,11.1875,-35.4375,179.1875,16.9375,-91.3125,0.2041015625,0.68536376953125,0.698974609375,-0.00482177734375,60.0,39.0,-151.0,286.0,937.0,-22.0,
30,0.47627806663513184,0.016780853271484375,59.59172539213458,62.98841391531571,2.5630890937118166e-38,353.0,972.0,-119.0,-12.5625,-38.0,9.1875,1.125,11.375,-38.0,179.4375,16.5625,-91.3125,0.20123291015625,0.68609619140625,0.6990966796875,-0.0032958984375,72.0,33.0,-97.0,280.0,939.0,-22.0,
31,0.4919092655181885,0.01563119888305664,63.97461944419023,63.019752163732655,2.5630890937118166e-38,301.0,928.0,-90.0,-12.5625,-38.0,9.1875,7.5625,9.0625,-36.9375,179.9375,15.8125,-91.375,0.195556640625,0.6881103515625,0.69879150390625,0.0,33.0,-14.0,-67.0,268.0,943.0,-22.0,
32,0.5077581405639648,0.015848875045776367,63.09596088755171,63.02213089967939,2.5630890937118166e-38,230.0,925.0,-81.0,-10.25,-38.6875,8.75,10.6875,9.0625,-26.625,180.125,15.5625,-91.4375,0.19354248046875,0.6890869140625,0.6983642578125,0.00091552734375,10.0,-18.0,-67.0,263.0,944.0,-24.0,
33,0.5241351127624512,0.016376972198486328,61.06134808560198,62.9608648542428,2.5630890937118166e-38,219.0,940.0,-73.0,-10.25,-38.6875,8.75,11.1875,10.4375,-19.0,180.125,15.1875,-91.5625,0.18939208984375,0.69122314453125,0.6973876953125,0.00091552734375,-37.0,-5.0,-46.0,257.0,945.0,-26.0,
34,0.5387880802154541,0.01465296745300293,68.24556208203843,63.10458833165696,2.5630890937118166e-38,252.0,958.0,-51.0,-10.25,-38.6875,8.75,10.0,12.625,-31.75,180.375,14.6875,-91.75,0.18463134765625,0.69342041015625,0.69647216796875,0.0025634765625,4.0,10.0,-22.0,248.0,948.0,-29.0,
35,0.5535542964935303,0.014766216278076172,67.72215584331708,63.227763241485505,2.5630890937118166e-38,306.0,975.0,-26.0,-10.25,-38.6875,8.75,8.0,13.0625,-32.0625,180.5625,14.375,-91.75,0.18194580078125,0.69439697265625,0.69622802734375,0.0035400390625,62.0,26.0,3.0,243.0,949.0,-29.0,
36,0.570061206817627,0.01650691032409668,60.58068895789702,63.15111354615832,2.5630890937118166e-38,290.0,958.0,-55.0,-10.0,-37.875,9.1875,4.9375,9.6875,-17.4375,180.5,13.9375,-91.8125,0.176513671875,0.6961669921875,0.69586181640625,0.0030517578125,53.0,7.0,-24.0,236.0,951.0,-30.0,
37,0.5859062671661377,0.015845060348510742,63.111151236100454,63.15003281831836,2.5630890937118166e-38,247.0,905.0,-84.0,-10.0,-37.875,9.1875,3.625,9.5,-8.5,180.4375,13.875,-91.875,0.1754150390625,0.696533203125,0.69573974609375,0.00299072265625,11.0,-46.0,-53.0,235.0,951.0,-31.0,
38,0.599668025970459,0.013761758804321289,72.6651305417439,63.368394435410444,2.5630890937118166e-38,202.0,895.0,-95.0,-10.0,-37.875,9.1875,5.3125,2.375,-2.0625,180.375,13.8125,-91.9375,0.17462158203125,0.69708251953125,0.69537353515625,0.00262451171875,-32.0,-56.0,-63.0,234.0,951.0,-32.0,
39,0.6153042316436768,0.015636205673217773,63.95413445557538,63.38327935079916,2.5630890937118166e-38,212.0,892.0,-80.0,-8.0625,-38.5625,9.5625,7.5625,-0.5625,-5.375,180.3125,13.75,-92.0,0.17376708984375,0.69775390625,0.6949462890625,0.00225830078125,-21.0,-59.0,-47.0,233.0,951.0,-33.0,
40,0.6312839984893799,0.015979766845703125,62.579135831940796,63.3629239703799,2.5630890937118166e-38,251.0,894.0,-76.0,-8.0625,-38.5625,9.5625,7.4375,4.5625,-14.4375,180.5,13.5,-92.125,0.17193603515625,0.69903564453125,0.69415283203125,0.00311279296875,21.0,-58.0,-41.0,229.0,952.0,-35.0,
41,0.6508259773254395,0.01954197883605957,51.17189044104191,62.99687078946809,2.5630890937118166e-38,255.0,892.0,-63.0,-8.0625,-38.5625,9.5625,5.5625,9.25,-13.625,180.5625,13.25,-92.1875,0.16925048828125,0.70013427734375,0.693603515625,0.003662109375,30.0,-61.0,-26.0,225.0,953.0,-36.0,
42,0.6678662300109863,0.017040252685546875,58.68457577792702,62.886844869082694,2.5630890937118166e-38,261.0,908.0,-65.0,-8.75,-38.25,9.0625,3.8125,4.75,-9.5,180.4375,13.0625,-92.25,0.166015625,0.70123291015625,0.69329833984375,0.00274658203125,55.0,-42.0,-44.0,221.0,954.0,-37.0,
43,0.6841540336608887,0.016287803649902344,61.39563206276714,62.85134324197174,2.5630890937118166e-38,281.0,907.0,-79.0,-8.75,-38.25,9.0625,3.0,2.8125,-9.625,180.5,12.9375,-92.25,0.165283203125,0.7015380859375,0.69317626953125,0.00311279296875,61.0,-47.0,-41.0,220.0,954.0,-38.0,
44,0.6976480484008789,0.013494014739990234,74.10692957348316,63.069050505989445,2.5630890937118166e-38,233.0,897.0,-87.0,-8.75,-38.25,9.0625,-1.3125,5.3125,-10.1875,180.5625,12.8125,-92.3125,0.16400146484375,0.7021484375,0.69317626953125,0.00341796875,26.0,-57.0,-36.0,218.0,955.0,-38.0,
45,0.7132589817047119,0.015610933303833008,64.05766910518197,63.09068817114444,2.5630890937118166e-38,222.0,894.0,-100.0,-8.5,-38.25,9.5,-1.9375,6.875,-10.3125,180.375,12.75,-92.25,0.16156005859375,0.70245361328125,0.693115234375,0.00225830078125,6.0,-61.0,-61.0,216.0,955.0,-38.0,
46,0.7285380363464355,0.015279054641723633,65.44907544667238,63.14014877066214,2.5630890937118166e-38,204.0,886.0,-99.0,-8.5,-38.25,9.5,-1.8125,7.875,-15.625,180.5,12.4375,-92.1875,0.1590576171875,0.70263671875,0.69354248046875,0.0030517578125,-7.0,-70.0,-62.0,212.0,956.0,-37.0,
47,0.7442371845245361,0.015699148178100586,63.69772351056236,63.151910408812014,2.5630890937118166e-38,201.0,899.0,-87.0,-8.5,-38.25,9.5,-2.0,8.4375,-21.125,180.625,12.25,-92.1875,0.15728759765625,0.70281982421875,0.69378662109375,0.0037841796875,-7.0,-58.0,-51.0,208.0,957.0,-36.0,
48,0.7597570419311523,0.015519857406616211,64.43358168830171,63.1780916146476,2.5630890937118166e-38,202.0,902.0,-82.0,-8.5,-38.25,9.5,-3.0,9.4375,-26.6875,180.75,12.0,-92.125,0.1551513671875,0.7030029296875,0.694091796875,0.00482177734375,9.0,-66.0,-52.0,199.0,959.0,-34.0,
49,0.7762160301208496,0.016458988189697266,60.75707622331025,63.126756081514,2.5630890937118166e-38,209.0,893.0,-87.0,-7.6875,-39.75,8.6875,-3.875,9.5,-29.0625,180.9375,11.75,-92.0625,0.152587890625,0.70318603515625,0.69439697265625,0.00579833984375,6.0,-68.0,-55.0,195.0,960.0,-33.0,
50,0.7924761772155762,0.016260147094726562,61.50005865102639,63.0933792554859,2.5630890937118166e-38,168.0,910.0,-55.0,-7.6875,-39.75,8.6875,-2.625,2.125,-24.1875,181.5,11.0,-92.0,0.14727783203125,0.70416259765625,0.69451904296875,0.00927734375,-19.0,-51.0,-21.0,187.0,961.0,-34.0,
51,0.8091580867767334,0.016681909561157227,59.945175720676296,63.02847469912533,2.5630890937118166e-38,176.0,919.0,-38.0,-7.6875,-39.75,8.6875,-2.375,1.125,-25.0625,181.75,10.75,-92.0,0.14569091796875,0.704345703125,0.6947021484375,0.0107421875,4.0,-47.0,3.0,179.0,963.0,-33.0,
52,0.8226652145385742,0.01350712776184082,74.0349849081249,63.20918774858659,2.5630890937118166e-38,183.0,916.0,-29.0,-8.0625,-39.375,8.25,-4.4375,1.5625,-28.9375,181.8125,10.5,-91.9375,0.14251708984375,0.7047119140625,0.6949462890625,0.01104736328125,15.0,-49.0,-4.0,173.0,964.0,-31.0,
53,0.8379662036895752,0.015300989151000977,65.35525188151519,63.24837417862483,2.5630890937118166e-38,215.0,980.0,-46.0,-8.0625,-39.375,8.25,-10.1875,8.0625,-43.4375,182.8125,9.3125,-91.625,0.13421630859375,0.70452880859375,0.6966552734375,0.01715087890625,55.0,13.0,-18.0,159.0,967.0,-28.0,
54,0.8523921966552734,0.014425992965698242,69.31931842596724,63.35111960420587,2.563304333155937e-38,228.0,1001.0,-50.0,-8.0625,-39.375,8.25,-9.9375,8.875,-42.6875,183.125,8.9375,-91.5,0.13116455078125,0.70440673828125,0.697265625,0.01922607421875,76.0,33.0,-24.0,152.0,968.0,-26.0,
55,0.8683781623840332,0.015985965728759766,62.55486950037285,63.33646144325391,2.563304333155937e-38,234.0,994.0,-56.0,-6.5625,-39.0,9.1875,-9.375,9.75,-40.625,183.25,8.5625,-91.4375,0.12713623046875,0.70452880859375,0.69793701171875,0.0201416015625,88.0,25.0,-32.0,140.0,970.0,-23.0,
56,0.8859620094299316,0.017583847045898438,56.8703763965723,63.20812789256387,2.563304333155937e-38,228.0,982.0,-63.0,-6.5625,-39.0,9.1875,-5.375,5.4375,-29.125,183.8125,7.875,-91.25,0.122314453125,0.7044677734375,0.69873046875,0.0233154296875,74.0,0.0,-68.0,135.0,971.0,-21.0,
57,0.9022090435028076,0.016247034072875977,61.549695502237874,63.17826274351973,2.563304333155937e-38,217.0,982.0,-77.0,-6.5625,-39.0,9.1875,-3.875,-1.25,-9.5,184.0625,7.625,-91.1875,0.1207275390625,0.70428466796875,0.6990966796875,0.025146484375,92.0,24.0,-39.0,130.0,971.0,-20.0,
58,0.9188940525054932,0.016685009002685547,59.93404018176103,63.11935510068314,2.563304333155937e-38,179.0,1006.0,-21.0,-6.5625,-40.0625,7.375,-4.5,-0.9375,-5.0,183.875,7.5625,-91.125,0.11865234375,0.70440673828125,0.69940185546875,0.02374267578125,49.0,34.0,-1.0,129.0,971.0,-20.0,
59,0.9318101406097412,0.012916088104248047,77.42282275630376,63.317619575799675,2.563304333155937e-38,146.0,1004.0,-13.0,-6.5625,-40.0625,7.375,-6.375,0.5625,0.8125,183.875,7.5625,-91.0625,0.11859130859375,0.70367431640625,0.70013427734375,0.0240478515625,-9.0,27.0,-21.0,129.0,971.0,-18.0,
60,0.9478693008422852,0.016059160232543945,62.26975666968541,63.299866286083386,2.563304333155937e-38,112.0,987.0,-57.0,-6.5625,-40.0625,7.375,-7.5,-1.4375,2.9375,183.875,7.625,-90.875,0.1190185546875,0.7027587890625,0.7010498046875,0.02386474609375,-5.0,15.0,-41.0,130.0,971.0,-16.0,
61,0.9640350341796875,0.016165733337402344,61.85924134269364,63.27570870067586,2.563304333155937e-38,125.0,947.0,-70.0,-6.5625,-40.0625,7.375,-7.5,-1.4375,2.9375,183.875,7.625,-90.875,0.1190185546875,0.7027587890625,0.7010498046875,0.02386474609375,-5.0,-24.0,-54.0,130.0,971.0,-15.0,
62,0.9772663116455078,0.013231277465820312,75.57849214357792,63.44227695274304,2.563304333155937e-38,143.0,938.0,-50.0,-6.1875,-40.875,8.0,-6.5625,-4.1875,-1.125,183.6875,7.5625,-90.6875,0.11712646484375,0.70263671875,0.70147705078125,0.0220947265625,-3.0,-33.0,-45.0,130.0,971.0,-14.0,
63,0.9951841831207275,0.017917871475219727,55.810200524263834,63.304864635652436,2.563304333155937e-38,171.0,933.0,-63.0,-6.1875,-40.875,8.0,-5.625,-4.125,3.3125,183.75,7.625,-90.625,0.1177978515625,0.70147705078125,0.7025146484375,0.02301025390625,50.0,-38.0,-51.0,130.0,971.0,-11.0,
64,1.0110151767730713,0.01583099365234375,63.16722891566265,63.30270946502834,2.563304333155937e-38,174.0,927.0,-67.0,-6.1875,-40.875,8.0,-4.4375,-4.875,9.1875,183.6875,7.6875,-90.625,0.11865234375,0.70111083984375,0.7027587890625,0.0228271484375,42.0,-44.0,-56.0,132.0,971.0,-11.0,
65,1.0269722938537598,0.015957117080688477,62.66796157121726,63.29284673891695,2.563304333155937e-38,142.0,910.0,-99.0,-5.0625,-40.0625,8.375,0.3125,0.0625,18.625,183.0625,8.1875,-90.5625,0.12078857421875,0.70098876953125,0.70294189453125,0.01885986328125,34.0,-54.0,-62.0,134.0,971.0,-10.0,
66,1.0442531108856201,0.01728081703186035,57.867634276569035,63.20306763944049,2.563304333155937e-38,138.0,910.0,-115.0,-5.0625,-40.0625,8.375,3.5,-0.25,17.4375,182.875,8.375,-90.625,0.121826171875,0.7005615234375,0.702880859375,0.01776123046875,-5.0,-63.0,-87.0,143.0,970.0,-11.0,
67,1.0603251457214355,0.01607203483581543,62.21987509456913,63.188164753382146,2.563304333155937e-38,144.0,908.0,-69.0,-5.0625,-40.0625,8.375,6.1875,-0.375,15.625,182.6875,8.5625,-90.6875,0.12274169921875,0.70074462890625,0.70257568359375,0.01678466796875,-1.0,-60.0,-57.0,146.0,969.0,-12.0,
68,1.0771870613098145,0.016861915588378906,59.305242916124655,63.12738283108863,2.563304333155937e-38,184.0,925.0,-31.0,-5.875,-40.5,8.0,6.3125,-0.6875,14.625,182.0625,8.9375,-90.75,0.1220703125,0.701416015625,0.70208740234375,0.0142822265625,27.0,-44.0,-22.0,148.0,969.0,-13.0,
69,1.0919580459594727,0.014770984649658203,67.70029376634277,63.18924088275905,2.563304333155937e-38,187.0,919.0,-28.0,-5.875,-40.5,8.0,3.625,1.125,16.375,181.875,9.125,-90.9375,0.1248779296875,0.7020263671875,0.70098876953125,0.01153564453125,28.0,-55.0,-18.0,155.0,968.0,-16.0,
70,1.1083660125732422,0.01640796661376953,60.94600406858471,63.15603257942224,2.563304333155937e-38,154.0,883.0,-68.0,-5.875,-40.5,8.0,1.6875,2.0,19.5625,181.625,9.3125,-90.9375,0.12591552734375,0.701904296875,0.700927734375,0.01025390625,-4.0,-84.0,-52.0,158.0,967.0,-16.0,
71,1.124892234802246,0.016526222229003906,60.50989670494547,63.11715718482283,2.563304333155937e-38,141.0,895.0,-78.0,-5.5,-39.75,8.375,1.875,0.0,24.6875,181.25,9.5625,-91.0,0.12646484375,0.70196533203125,0.70086669921875,0.00787353515625,-21.0,-71.0,-60.0,163.0,966.0,-17.0,
72,1.1403541564941406,0.015461921691894531,64.67501387775242,63.13827997203424,2.563304333155937e-38,175.0,953.0,-53.0,-5.5,-39.75,8.375,0.9375,-6.1875,19.625,180.6875,10.25,-91.0625,0.1319580078125,0.70147705078125,0.70037841796875,0.0042724609375,5.0,-11.0,-26.0,175.0,964.0,-18.0,
73,1.156898021697998,0.016543865203857422,60.44536676754576,63.09977079298373,2.563304333155937e-38,182.0,940.0,-63.0,-5.5,-39.75,8.375,-1.0,-4.5,8.0625,180.625,10.375,-91.0625,0.1326904296875,0.7012939453125,0.70037841796875,0.00408935546875,5.0,-23.0,-45.0,176.0,964.0,-18.0,
74,1.1720030307769775,0.015105009078979492,66.2032041669955,63.139768461982406,2.563304333155937e-38,183.0,916.0,-77.0,-7.0,-39.75,8.0,-1.75,-4.625,-1.8125,180.4375,10.3125,-91.0625,0.13128662109375,0.7015380859375,0.700439453125,0.0029296875,7.0,-47.0,-59.0,176.0,964.0,-18.0,
75,1.1862540245056152,0.014250993728637695,70.17054522945142,63.22423228975522,2.563304333155937e-38,229.0,897.0,-63.0,-7.0,-39.75,8.0,1.3125,-8.5,-6.0625,180.6875,10.1875,-91.125,0.13140869140625,0.70172119140625,0.7001953125,0.00457763671875,55.0,-67.0,-44.0,174.0,964.0,-19.0,
76,1.2025830745697021,0.016329050064086914,61.240549577304385,63.19729722388922,2.563304333155937e-38,241.0,904.0,-49.0,-7.0,-39.75,8.0,2.5625,-4.625,2.625,180.8125,10.1875,-91.1875,0.13214111328125,0.7020263671875,0.69976806640625,0.00518798828125,65.0,-51.0,-19.0,174.0,964.0,-20.0,
77,1.218076229095459,0.015493154525756836,64.54463475062708,63.214434499867096,2.563304333155937e-38,219.0,923.0,-57.0,-7.0,-39.75,8.75,3.0,-2.5625,7.75,180.5625,10.25,-91.1875,0.131591796875,0.70233154296875,0.6995849609375,0.003662109375,43.0,-40.0,-36.0,175.0,964.0,-20.0,
78,1.2331271171569824,0.015050888061523438,66.44126219744012,63.25381942766105,2.562802107786323e-38,209.0,925.0,-54.0,-7.0,-39.75,8.75,4.6875,-4.0625,15.9375,180.3125,10.5625,-91.3125,0.1336669921875,0.7025146484375,0.698974609375,0.00225830078125,21.0,-31.0,-30.0,180.0,963.0,-22.0,
79,1.2508161067962646,0.017688989639282227,56.5323413260011,63.15876456239756,2.562802107786323e-38,202.0,951.0,-30.0,-7.0,-39.75,8.75,5.75,-4.5625,15.125,180.125,10.875,-91.4375,0.1361083984375,0.702880859375,0.69818115234375,0.0008544921875,15.0,-16.0,-10.0,185.0,962.0,-24.0,
80,1.2652971744537354,0.014481067657470703,69.05568178076328,63.22625357520321,2.562802107786323e-38,199.0,940.0,-43.0,-7.25,-38.25,9.1875,4.0625,-3.0,11.4375,179.6875,11.0,-91.5,0.1351318359375,0.70330810546875,0.69793701171875,-0.00152587890625,12.0,-22.0,-18.0,187.0,962.0,-25.0,
81,1.2815139293670654,0.016216754913330078,61.66461818930283,63.20649205897089,2.562802107786323e-38,192.0,931.0,-55.0,-7.25,-38.25,9.1875,2.8125,-3.5625,7.25,179.625,11.0625,-91.5625,0.1363525390625,0.7037353515625,0.697265625,-0.001953125,1.0,-44.0,-59.0,189.0,961.0,-27.0,
82,1.2975852489471436,0.016071319580078125,62.22264419653454,63.1943065525248,2.562802107786323e-38,194.0,919.0,-78.0,-7.25,-38.25,9.1875,2.625,-3.75,2.6875,179.6875,11.125,-91.6875,0.13671875,0.703857421875,0.69708251953125,-0.00189208984375,4.0,-42.0,-50.0,189.0,961.0,-27.0,
83,1.3133430480957031,0.01575779914855957,63.460638796846865,63.19750206950637,2.562802107786323e-38,206.0,926.0,-58.0,-7.25,-38.25,9.1875,3.875,-5.75,2.3125,179.6875,11.125,-91.6875,0.13720703125,0.70404052734375,0.69677734375,-0.001708984375,16.0,-35.0,-30.0,189.0,961.0,-28.0,
84,1.3292741775512695,0.015931129455566406,62.77018856629751,63.19238078839469,2.562802107786323e-38,240.0,940.0,-48.0,-7.0,-39.375,9.5625,5.8125,-7.4375,1.625,179.6875,11.1875,-91.875,0.13787841796875,0.70513916015625,0.695556640625,-0.00189208984375,53.0,-26.0,-22.0,190.0,961.0,-31.0,
85,1.3442192077636719,0.014945030212402344,66.91187543870845,63.233734132851275,2.562802107786323e-38,251.0,935.0,-54.0,-7.0,-39.375,9.5625,4.9375,-6.1875,1.625,179.6875,11.1875,-91.875,0.13824462890625,0.705322265625,0.69525146484375,-0.001708984375,61.0,-24.0,-20.0,190.0,961.0,-32.0,
86,1.3606112003326416,0.016391992568969727,61.005396128168954,63.206888183027424,2.562802107786323e-38,248.0,950.0,-52.0,-7.0,-39.375,9.5625,2.375,-2.625,2.375,179.6875,11.25,-91.9375,0.1385498046875,0.7054443359375,0.69512939453125,-0.00177001953125,57.0,-11.0,-19.0,191.0,961.0,-32.0,
87,1.3758721351623535,0.015260934829711914,65.52678529581777,63.23262007899736,2.562802107786323e-38,236.0,950.0,-80.0,-8.5,-39.75,9.5,1.625,-0.3125,2.4375,179.3125,11.25,-91.9375,0.1365966796875,0.70587158203125,0.69500732421875,-0.00396728515625,49.0,-3.0,-29.0,191.0,961.0,-33.0,
88,1.392090082168579,0.016217947006225586,61.66008555929612,63.21429994164946,2.562802107786323e-38,227.0,941.0,-100.0,-8.5,-39.75,9.5,1.25,-0.4375,3.9375,179.1875,11.375,-92.0,0.13739013671875,0.7060546875,0.6947021484375,-0.00457763671875,28.0,-25.0,-39.0,193.0,960.0,-34.0,
89,1.408412218093872,0.01632213592529297,61.26649138182881,63.191726723623226,2.562802107786323e-38,233.0,948.0,-64.0,-8.5,-39.75,9.5,3.0,-2.6875,2.5625,179.1875,11.375,-92.0625,0.1376953125,0.7061767578125,0.69451904296875,-0.00457763671875,39.0,-12.0,-30.0,193.0,960.0,-34.0,
90,1.421809196472168,0.013396978378295898,74.64369738926163,63.299632765993124,2.562802107786323e-38,248.0,957.0,-55.0,-8.0625,-38.5625,8.25,3.5625,-2.9375,1.0,178.9375,11.375,-92.0625,0.13629150390625,0.7066650390625,0.6942138671875,-0.006103515625,54.0,-3.0,-19.0,194.0,960.0,-35.0,
91,1.440157175064087,0.018347978591918945,54.501916654755256,63.18754756469585,2.562802107786323e-38,250.0,949.0,-64.0,-8.0625,-38.5625,8.25,2.4375,-1.75,-1.75,178.875,11.5,-92.25,0.1375732421875,0.7073974609375,0.69329833984375,-0.0067138671875,47.0,-15.0,-29.0,196.0,960.0,-37.0,
92,1.4549660682678223,0.014808893203735352,67.5269911290712,63.231715162628205,2.562802107786323e-38,244.0,941.0,-66.0,-8.0625,-38.5625,8.25,0.875,-1.5625,2.3125,178.8125,11.625,-92.25,0.13812255859375,0.70751953125,0.6929931640625,-0.00714111328125,46.0,-18.0,-27.0,197.0,959.0,-38.0,
93,1.4710431098937988,0.016077041625976562,62.20049827974849,63.22044498526905,2.562802107786323e-38,245.0,948.0,-68.0,-8.0625,-39.375,9.0625,0.9375,-1.5,4.1875,178.5,11.6875,-92.3125,0.13739013671875,0.70794677734375,0.6927490234375,-0.00909423828125,46.0,-10.0,-29.0,199.0,959.0,-39.0,
94,1.489630937576294,0.018587827682495117,53.798648076651745,63.10287845722567,2.562802107786323e-38,241.0,950.0,-68.0,-8.0625,-39.375,9.0625,1.625,-2.75,3.1875,178.3125,11.875,-92.4375,0.1392822265625,0.70843505859375,0.6917724609375,-0.010009765625,34.0,-14.0,-14.0,202.0,958.0,-41.0,
95,1.5067310333251953,0.017100095748901367,58.47920471815178,63.05040375410938,2.562802107786323e-38,239.0,947.0,-60.0,-8.0625,-39.375,9.0625,2.125,-3.4375,3.0625,178.25,12.0,-92.5,0.139892578125,0.7086181640625,0.6915283203125,-0.01019287109375,35.0,-11.0,-18.0,203.0,958.0,-42.0,
96,1.5211231708526611,0.01439213752746582,69.48238217510146,63.11126004752625,2.562802107786323e-38,240.0,950.0,-61.0,-7.25,-38.25,9.875,0.875,-1.9375,3.625,178.125,12.0625,-92.5625,0.1400146484375,0.7088623046875,0.69122314453125,-0.01165771484375,41.0,-1.0,-20.0,206.0,957.0,-43.0,
97,1.537532091140747,0.016408920288085938,60.942461931884225,63.088114101106285,2.562802107786323e-38,252.0,953.0,-73.0,-7.25,-38.25,9.875,-0.3125,-1.5,2.75,178.0,12.1875,-92.5625,0.1409912109375,0.7088623046875,0.69122314453125,-0.01220703125,45.0,-3.0,-30.0,207.0,957.0,-43.0,
98,1.5518100261688232,0.014277935028076172,70.0381391310156,63.152060076546036,2.562802107786323e-38,248.0,935.0,-62.0,-7.25,-38.25,9.875,-0.625,-1.625,1.5625,177.9375,12.1875,-92.625,0.141357421875,0.7088623046875,0.69091796875,-0.0123291015625,32.0,-30.0,-10.0,208.0,957.0,-44.0,
99,1.5681841373443604,0.01637411117553711,61.072017239873034,63.13034142001426,2.562802107786323e-38,231.0,919.0,-54.0,-7.0,-39.75,9.375,-3.1875,-0.1875,3.0625,177.875,12.3125,-92.5625,0.1417236328125,0.70867919921875,0.6910400390625,-0.01263427734375,22.0,-37.0,-10.0,209.0,956.0,-43.0,
100,1.5829851627349854,0.014801025390625,67.56288659793815,63.17178603697465,2.562802107786323e-38,217.0,926.0,-88.0,-7.0,-39.75,9.375,-5.125,2.25,4.5625,177.8125,12.375,-92.5625,0.14190673828125,0.70831298828125,0.69134521484375,-0.012939453125,7.0,-30.0,-45.0,210.0,956.0,-42.0,
101,1.5986781120300293,0.015692949295043945,63.7228847936069,63.1771957343861,2.562802107786323e-38,214.0,947.0,-78.0,-7.0,-39.75,9.375,-7.5,3.0625,3.5625,177.6875,12.4375,-92.375,0.141845703125,0.70684814453125,0.69287109375,-0.0137939453125,19.0,-3.0,-13.0,211.0,956.0,-38.0,
102,1.614065170288086,0.01538705825805664,64.98968049831107,63.194474348142066,2.5632325866745634e-38,263.0,968.0,-32.0,-8.5,-39.0,9.875,-13.5,7.75,-5.4375,177.5,12.375,-92.125,0.13970947265625,0.70635986328125,0.69378662109375,-0.01513671875,52.0,11.0,4.0,211.0,956.0,-36.0,
103,1.6285040378570557,0.014438867568969727,69.2575089579102,63.248231263545065,2.5632325866745634e-38,259.0,948.0,-38.0,-8.5,-39.0,9.875,-15.625,8.625,-10.1875,177.5,12.3125,-91.9375,0.13861083984375,0.70556640625,0.69482421875,-0.01483154296875,50.0,-8.0,-4.0,209.0,957.0,-33.0,
104,1.6457562446594238,0.017252206802368164,57.9635991763519,63.192833287120216,2.5632325866745634e-38,235.0,904.0,-61.0,-8.5,-39.0,9.875,-16.375,7.5625,-5.9375,177.5625,12.1875,-91.8125,0.13677978515625,0.70379638671875,0.69696044921875,-0.014404296875,28.0,-53.0,-34.0,206.0,958.0,-27.0,
105,1.6643791198730469,0.018622875213623047,53.697401101011394,63.08658811341555,2.5632325866745634e-38,219.0,907.0,-100.0,-7.6875,-39.375,7.375,-13.25,5.5,5.0,177.5,12.1875,-91.3125,0.13641357421875,0.70208740234375,0.69879150390625,-0.01507568359375,12.0,-50.0,-78.0,207.0,958.0,-22.0,
106,1.6769232749938965,0.01254415512084961,79.71840194625005,63.21100170810487,2.5632325866745634e-38,213.0,907.0,-109.0,-7.6875,-39.375,7.375,-10.25,5.1875,5.4375,177.4375,12.25,-91.1875,0.136474609375,0.70135498046875,0.69940185546875,-0.01556396484375,4.0,-50.0,-88.0,208.0,957.0,-20.0,
107,1.6922130584716797,0.015289783477783203,65.4031498518634,63.23080859371037,2.5632325866745634e-38,238.0,931.0,-86.0,-7.6875,-39.375,7.375,-0.4375,2.6875,3.375,177.375,12.3125,-91.125,0.1365966796875,0.70098876953125,0.69976806640625,-0.01593017578125,29.0,-25.0,-66.0,209.0,957.0,-19.0,
108,1.7071311473846436,0.014918088912963867,67.03271483594636,63.26403227160256,2.5632325866745634e-38,246.0,928.0,-60.0,-7.6875,-39.375,7.375,3.75,-4.125,0.0625,177.375,12.3125,-91.1875,0.1368408203125,0.70123291015625,0.69952392578125,-0.0157470703125,37.0,-29.0,-39.0,209.0,957.0,-20.0,
109,1.7231872081756592,0.016056060791015625,62.28177714421478,63.2548799589793,2.5632325866745634e-38,234.0,908.0,-28.0,-7.25,-39.75,8.0,8.0,-6.375,3.625,177.4375,12.3125,-91.375,0.13787841796875,0.7020263671875,0.698486328125,-0.015380859375,24.0,-48.0,-5.0,210.0,957.0,-23.0,
110,1.7414920330047607,0.018304824829101562,54.63040533500052,63.16422809595437,2.5632325866745634e-38,212.0,937.0,-31.0,-7.25,-39.75,8.0,4.75,-1.5,10.3125,177.3125,12.5,-91.5,0.13848876953125,0.702392578125,0.697998046875,-0.0162353515625,13.0,-33.0,-17.0,211.0,957.0,-24.0,
111,1.758857250213623,0.017365217208862305,57.58638017436672,63.10915794133857,2.5632325866745634e-38,201.0,950.0,-18.0,-7.25,-39.75,8.0,1.3125,1.25,10.8125,177.1875,12.625,-91.5,0.1397705078125,0.7025146484375,0.6976318359375,-0.0169677734375,-13.0,-5.0,6.0,214.0,956.0,-25.0,
112,1.7729263305664062,0.014069080352783203,71.07785121165904,63.17239361221442,2.5632325866745634e-38,188.0,926.0,-60.0,-8.5,-39.0,8.375,-3.5,2.875,2.3125,176.8125,12.6875,-91.4375,0.1387939453125,0.7022705078125,0.697998046875,-0.01910400390625,-27.0,-29.0,-35.0,216.0,956.0,-24.0,
113,1.7909021377563477,0.017975807189941406,55.63032521619184,63.096691671587955,2.5632325866745634e-38,216.0,896.0,-65.0,-8.5,-39.0,8.375,-3.625,0.75,-3.0625,176.875,12.6875,-91.375,0.1385498046875,0.70208740234375,0.6982421875,-0.0189208984375,-26.0,-51.0,-53.0,215.0,956.0,-23.0,
114,1.8054242134094238,0.014522075653076172,68.8606796913479,63.14305477531985,2.5632325866745634e-38,227.0,903.0,-68.0,-8.5,-39.0,8.375,-2.9375,-1.3125,-8.1875,177.0625,12.5625,-91.3125,0.1378173828125,0.701904296875,0.6986083984375,-0.017822265625,13.0,-53.0,-45.0,213.0,956.0,-22.0,
115,1.8210422992706299,0.015618085861206055,64.02833284992444,63.15064732217379,2.5632325866745634e-38,257.0,942.0,-74.0,-8.0625,-39.75,8.375,-0.625,0.4375,-8.1875,177.0625,12.4375,-91.3125,0.13702392578125,0.701904296875,0.69873046875,-0.017578125,28.0,-35.0,-51.0,212.0,957.0,-22.0,
116,1.8363890647888184,0.015346765518188477,65.16031008715376,63.16744214186431,2.5632325866745634e-38,284.0,967.0,-59.0,-8.0625,-39.75,8.375,1.375,0.25,-4.5,177.1875,12.375,-91.3125,0.1363525390625,0.70208740234375,0.69873046875,-0.0169677734375,74.0,9.0,-37.0,210.0,957.0,-22.0,
117,1.85160231590271,0.015213251113891602,65.732169443182,63.18851461522346,2.5632325866745634e-38,269.0,957.0,-40.0,-8.0625,-39.75,8.375,5.5625,-5.6875,3.875,177.1875,12.375,-91.4375,0.136962890625,0.70263671875,0.69805908203125,-0.01678466796875,59.0,0.0,-16.0,210.0,957.0,-23.0,
118,1.867335319519043,0.015733003616333008,63.56065404840201,63.19165003015766,2.5632325866745634e-38,239.0,926.0,-29.0,-8.0625,-40.0625,8.75,6.125,-8.125,10.3125,177.125,12.5,-91.5,0.13751220703125,0.70294189453125,0.69757080078125,-0.01751708984375,27.0,-30.0,-4.0,212.0,957.0,-25.0,
119,1.881392240524292,0.014056921005249023,71.13933411353652,63.25103156949238,2.5632325866745634e-38,165.0,927.0,-75.0,-8.0625,-40.0625,8.75,0.625,3.0625,19.625,176.75,12.8125,-91.5625,0.1396484375,0.70281982421875,0.697265625,-0.0196533203125,-52.0,-50.0,-23.0,214.0,956.0,-26.0,
120,1.896259069442749,0.014866828918457031,67.26383988709988,63.28249232066388,2.5632325866745634e-38,157.0,942.0,-68.0,-8.0625,-40.0625,8.75,-1.25,5.25,17.25,176.5,13.0,-91.5,0.140380859375,0.7025146484375,0.6973876953125,-0.02099609375,-63.0,-12.0,-42.0,220.0,955.0,-25.0,
121,1.9106643199920654,0.014405250549316406,69.41913273750414,63.328758868801444,2.5632325866745634e-38,205.0,1000.0,10.0,-8.5,-38.25,8.75,-2.375,3.375,10.0,176.375,13.0625,-91.5,0.14080810546875,0.7022705078125,0.69757080078125,-0.021728515625,-38.0,33.0,41.0,222.0,954.0,-25.0,
122,1.9270100593566895,0.016345739364624023,61.17802184979361,63.310515379835806,2.5632325866745634e-38,217.0,977.0,-30.0,-8.5,-38.25,8.75,-7.125,-2.75,-5.9375,176.3125,13.0625,-91.375,0.13946533203125,0.701904296875,0.6981201171875,-0.02239990234375,-3.0,22.0,-6.0,221.0,954.0,-23.0,
123,1.9423091411590576,0.015299081802368164,65.3633997724758,63.32668543515206,2.5632325866745634e-38,211.0,879.0,-101.0,-8.5,-38.25,8.75,-9.5625,-4.0,-8.625,176.5625,12.875,-91.1875,0.1387939453125,0.70098876953125,0.69927978515625,-0.020751953125,-7.0,-75.0,-81.0,218.0,955.0,-20.0,
124,1.9547502994537354,0.012441158294677734,80.37836801962362,63.435212177561716,2.5632325866745634e-38,224.0,888.0,-127.0,-8.5,-38.25,8.75,-7.3125,-6.625,-4.125,176.6875,12.8125,-91.1875,0.13897705078125,0.70062255859375,0.6995849609375,-0.02001953125,6.0,-66.0,-107.0,218.0,955.0,-19.0,
125,1.9711380004882812,0.0163877010345459,61.02137193569506,63.41514392652142,2.5632325866745634e-38,249.0,903.0,-120.0,-9.5625,-39.75,9.1875,1.25,-13.75,4.625,176.625,12.875,-91.1875,0.13916015625,0.70074462890625,0.69940185546875,-0.02044677734375,30.0,-51.0,-99.0,218.0,955.0,-20.0,
126,1.9863331317901611,0.015195131301879883,65.81055340247596,63.43346842653924,2.563806558525551e-38,252.0,884.0,-117.0,-9.5625,-39.75,9.1875,5.8125,-14.8125,6.375,176.6875,12.9375,-91.3125,0.140380859375,0.7010498046875,0.6988525390625,-0.02001953125,33.0,-70.0,-95.0,219.0,955.0,-21.0,
127,2.001861095428467,0.015527963638305664,64.39994472508407,63.44096515488636,2.563806558525551e-38,271.0,905.0,-58.0,-9.5625,-39.75,9.1875,9.4375,-10.3125,8.9375,176.6875,13.0625,-91.5,0.14263916015625,0.70196533203125,0.697509765625,-0.01983642578125,49.0,-49.0,-33.0,222.0,954.0,-25.0,
128,2.0159432888031006,0.014082193374633789,71.01166511470414,63.493849609229706,2.563806558525551e-38,265.0,885.0,-41.0,-9.1875,-39.75,9.5,11.125,-10.6875,16.125,176.375,13.25,-91.625,0.14276123046875,0.7027587890625,0.69659423828125,-0.021728515625,40.0,-68.0,-13.0,225.0,954.0,-27.0,
129,2.0300920009613037,0.014148712158203125,70.67781073065517,63.54391817657278,2.563806558525551e-38,251.0,831.0,-59.0,-9.1875,-39.75,9.5,11.125,-10.6875,16.125,176.3125,13.375,-91.75,0.14434814453125,0.7032470703125,0.69580078125,-0.02215576171875,43.0,-93.0,-14.0,227.0,953.0,-30.0,
130,2.0456111431121826,0.015519142150878906,64.43655134271492,63.550690187490204,2.563806558525551e-38,244.0,831.0,-4.0,-9.1875,-39.75,9.5,8.25,-10.6875,23.8125,176.0625,13.8125,-92.0,0.14825439453125,0.703857421875,0.6943359375,-0.023681640625,9.0,-120.0,29.0,234.0,951.0,-34.0,
131,2.072484016418457,0.026872873306274414,37.21224703450356,63.20917264606285,2.563806558525551e-38,26.0,60.0,24.0,-8.75,-38.25,9.0625,34.1875,13.0625,17.875,174.875,14.4375,-92.625,0.149169921875,0.707275390625,0.69036865234375,-0.03076171875,-217.0,-887.0,68.0,244.0,948.0,-44.0,
132,2.0854551792144775,0.012971162796020508,77.09409061667127,63.295534382915896,2.563806558525551e-38,17.0,20.0,-6.0,-8.75,-38.25,9.0625,76.5625,7.75,16.625,174.4375,14.5625,-93.375,0.1495361328125,0.71148681640625,0.68585205078125,-0.03314208984375,-229.0,-926.0,49.0,247.0,947.0,-55.0,
133,2.1013193130493164,0.015864133834838867,63.03527254692737,63.293569508480786,2.563806558525551e-38,19.0,14.0,-7.0,-8.75,-38.25,9.0625,95.9375,4.8125,16.375,173.5,14.875,-95.1875,0.150390625,0.72210693359375,0.6741943359375,-0.03802490234375,-232.0,-929.0,78.0,252.0,943.0,-86.0,
134,2.1186511516571045,0.017331838607788086,57.697283169406425,63.24778852582305,2.563806558525551e-38,19.0,16.0,-11.0,-9.5625,-38.5625,9.375,95.8125,5.0625,16.375,172.875,15.0625,-96.125,0.14971923828125,0.7275390625,0.66827392578125,-0.04150390625,-235.0,-924.0,90.0,255.0,941.0,-101.0,
135,2.1345741748809814,0.015923023223876953,62.80214416195011,63.24446420679069,2.563806558525551e-38,21.0,15.0,-16.0,-9.5625,-38.5625,9.375,94.625,5.3125,16.25,171.875,15.375,-97.9375,0.15045166015625,0.73773193359375,0.656494140625,-0.04638671875,-239.0,-920.0,114.0,260.0,936.0,-131.0,
136,2.1489450931549072,0.014370918273925781,69.58497577808747,63.28686592933643,2.563806558525551e-38,21.0,15.0,-13.0,-9.5625,-38.5625,9.375,93.9375,5.6875,16.0625,171.375,15.5625,-98.8125,0.1507568359375,0.74267578125,0.650634765625,-0.048828125,-241.0,-917.0,132.0,263.0,933.0,-145.0,
137,2.168006181716919,0.01906108856201172,52.46290088557562,63.19170173744845,2.563806558525551e-38,20.0,15.0,-11.0,-10.25,-36.75,12.6875,92.5625,5.8125,15.875,170.125,15.875,-100.625,0.14971923828125,0.75262451171875,0.6387939453125,-0.05499267578125,-248.0,-911.0,162.0,268.0,926.0,-174.0,
138,2.184476137161255,0.016469955444335938,60.7166184134337,63.17304073613373,2.563806558525551e-38,21.0,16.0,-20.0,-10.25,-36.75,12.6875,90.75,6.3125,15.375,169.0625,16.1875,-102.375,0.150146484375,0.761962890625,0.62713623046875,-0.05975341796875,-252.0,-902.0,182.0,274.0,919.0,-202.0,
139,2.1993401050567627,0.014863967895507812,67.27678686000256,63.2007753964058,2.563806558525551e-38,22.0,18.0,-14.0,-10.25,-36.75,12.6875,88.875,7.625,15.0,168.5625,16.375,-103.25,0.15032958984375,0.76641845703125,0.62139892578125,-0.06219482421875,-253.0,-898.0,196.0,276.0,915.0,-215.0,
140,2.2156851291656494,0.01634502410888672,61.18069899060622,63.18587337033723,2.563806558525551e-38,22.0,20.0,-14.0,-11.0625,-36.0,14.375,88.1875,7.3125,14.5625,167.1875,16.6875,-104.9375,0.14892578125,0.7755126953125,0.6097412109375,-0.06817626953125,-259.0,-887.0,228.0,281.0,907.0,-242.0,
141,2.231487989425659,0.015802860260009766,63.279683775383965,63.18653771302198,2.563806558525551e-38,25.0,28.0,-21.0,-11.0625,-36.0,14.375,85.875,8.25,13.875,166.125,17.0,-106.5625,0.14898681640625,0.78387451171875,0.598388671875,-0.07281494140625,-261.0,-870.0,246.0,286.0,898.0,-268.0,
142,2.245922088623047,0.014434099197387695,69.28038849705159,63.22570169255463,2.563806558525551e-38,24.0,29.0,-17.0,-11.0625,-36.0,14.375,84.5625,8.625,13.375,165.5,17.125,-107.375,0.14886474609375,0.78790283203125,0.5927734375,-0.07513427734375,-265.0,-864.0,262.0,289.0,894.0,-280.0,
143,2.2609052658081055,0.014983177185058594,66.74151868117879,63.24900125741807,2.563806558525551e-38,26.0,36.0,-17.0,-11.75,-32.6875,18.75,81.9375,8.875,12.625,164.0,17.4375,-108.9375,0.1461181640625,0.796142578125,0.58154296875,-0.08148193359375,-267.0,-848.0,286.0,293.0,884.0,-304.0,
144,2.2755792140960693,0.014673948287963867,68.14798446715518,63.280592083102356,2.563806558525551e-38,27.0,38.0,-23.0,-11.75,-32.6875,18.75,80.875,9.5625,12.125,163.4375,17.5625,-109.75,0.14593505859375,0.79986572265625,0.57611083984375,-0.083740234375,-268.0,-840.0,292.0,296.0,879.0,-315.0,
145,2.2916572093963623,0.01607799530029297,62.196808826146274,63.27298838825636,2.563806558525551e-38,28.0,44.0,-27.0,-11.75,-32.6875,18.75,77.5625,10.0625,11.125,162.25,17.8125,-111.1875,0.1453857421875,0.8070068359375,0.5655517578125,-0.088134765625,-271.0,-825.0,310.0,300.0,870.0,-338.0,
146,2.3053219318389893,0.013664722442626953,73.18114247827756,63.33171865654948,2.563806558525551e-38,28.0,45.0,-21.0,-11.75,-32.6875,18.75,75.375,10.6875,10.5,161.6875,17.9375,-111.9375,0.14501953125,0.81036376953125,0.5604248046875,-0.09027099609375,-273.0,-819.0,327.0,302.0,865.0,-348.0,
147,2.321986198425293,0.01666426658630371,60.00864153372917,63.30786983130707,2.563806558525551e-38,27.0,48.0,-22.0,-11.75,-28.5625,20.0,73.4375,11.375,10.25,160.5,18.25,-113.25,0.1441650390625,0.8167724609375,0.55059814453125,-0.0946044921875,-279.0,-801.0,344.0,307.0,855.0,-368.0,
148,2.338717222213745,0.01673102378845215,59.76920555753473,63.28255446800385,2.563806558525551e-38,28.0,60.0,-30.0,-11.75,-28.5625,20.0,67.75,12.0625,9.375,159.875,18.375,-113.9375,0.1436767578125,0.81976318359375,0.54583740234375,-0.0966796875,-280.0,-794.0,342.0,309.0,850.0,-377.0,
149,2.3534181118011475,0.014700889587402344,68.02309438858255,63.31216678109333,2.563806558525551e-38,26.0,61.0,-30.0,-11.75,-28.5625,20.0,65.5625,12.6875,8.6875,158.6875,18.625,-115.1875,0.14263916015625,0.825439453125,0.5367431640625,-0.10089111328125,-287.0,-778.0,365.0,313.0,840.0,-395.0,
150,2.372310161590576,0.01889204978942871,52.93231868145736,63.22950617023393,2.564524023339285e-38,28.0,66.0,-28.0,-11.5,-23.75,21.75,61.3125,13.4375,8.3125,157.5,18.875,-116.3125,0.14154052734375,0.83062744140625,0.5281982421875,-0.10498046875,-289.0,-764.0,380.0,317.0,831.0,-411.0,
151,2.3867602348327637,0.0144500732421875,69.20380147835269,63.26567612292247,2.564524023339285e-38,28.0,71.0,-41.0,-11.5,-23.75,21.75,58.5625,14.375,7.9375,156.875,19.0,-116.875,0.14093017578125,0.8330078125,0.524169921875,-0.1070556640625,-291.0,-754.0,378.0,319.0,826.0,-419.0,
152,2.401928186416626,0.015167951583862305,65.92848048538958,63.282491483129995,2.564524023339285e-38,30.0,76.0,-37.0,-11.5,-23.75,21.75,53.625,15.625,7.375,155.6875,19.25,-117.875,0.13958740234375,0.83740234375,0.51666259765625,-0.1112060546875,-293.0,-741.0,395.0,324.0,818.0,-432.0,
153,2.4187471866607666,0.016819000244140625,59.45656611476525,63.25588752879385,2.564524023339285e-38,32.0,79.0,-38.0,-13.0,-20.0625,24.0,48.6875,16.4375,6.8125,154.5,19.5625,-118.75,0.13824462890625,0.84124755859375,0.50982666015625,-0.11529541015625,-296.0,-728.0,400.0,326.0,813.0,-439.0,
154,2.4348881244659424,0.01614093780517578,61.95426883308715,63.24725906401867,2.564524023339285e-38,32.0,83.0,-49.0,-13.0,-20.0625,24.0,46.125,16.8125,6.5,153.875,19.6875,-119.125,0.13751220703125,0.84295654296875,0.50665283203125,-0.1173095703125,-297.0,-722.0,400.0,330.0,806.0,-450.0,
155,2.449094295501709,0.014206171035766602,70.39194428127884,63.288702392835994,2.564524023339285e-38,36.0,82.0,-48.0,-13.0,-20.0625,24.0,40.75,17.0,6.25,153.3125,19.8125,-119.5625,0.1368408203125,0.8446044921875,0.503662109375,-0.1192626953125,-300.0,-718.0,403.0,332.0,802.0,-455.0,
156,2.4655730724334717,0.016478776931762695,60.68411534065425,63.27129450924409,2.564524023339285e-38,36.0,82.0,-48.0,-13.0,-20.0625,24.0,40.75,17.5,5.9375,152.75,19.9375,-119.875,0.13531494140625,0.847412109375,0.49835205078125,-0.12322998046875,-300.0,-715.0,405.0,337.0,795.0,-463.0,
157,2.481227159500122,0.01565408706665039,63.88108075177435,63.27514165677191,2.564524023339285e-38,43.0,80.0,-59.0,-13.0,-16.375,27.0,30.1875,20.25,3.75,151.125,20.3125,-120.75,0.13360595703125,0.849609375,0.49407958984375,-0.12713623046875,-297.0,-709.0,395.0,341.0,790.0,-470.0,
158,2.4970600605010986,0.015832901000976562,63.159619322973136,63.27440917392002,2.564524023339285e-38,44.0,80.0,-74.0,-13.0,-16.375,27.0,26.375,21.1875,2.8125,150.625,20.4375,-120.9375,0.13262939453125,0.8504638671875,0.492431640625,-0.12908935546875,-292.0,-708.0,391.0,343.0,787.0,-472.0,
159,2.5165302753448486,0.01947021484375,51.36050156739812,63.182232122445534,2.564524023339285e-38,50.0,79.0,-82.0,-13.0,-16.375,27.0,21.9375,21.9375,1.125,150.125,20.5625,-121.0625,0.131591796875,0.85113525390625,0.49102783203125,-0.13092041015625,-294.0,-704.0,392.0,347.0,784.0,-474.0,
160,2.532125234603882,0.015594959259033203,64.12328390154411,63.18802791167236,2.564524023339285e-38,51.0,80.0,-87.0,-15.5,-15.5,27.5625,6.5625,26.375,-3.25,148.8125,20.9375,-121.1875,0.12774658203125,0.851806640625,0.4893798828125,-0.136474609375,-294.0,-698.0,365.0,350.0,783.0,-474.0,
161,2.5474801063537598,0.01535487174987793,65.12591028368244,63.199708448534786,2.564524023339285e-38,55.0,85.0,-109.0,-15.5,-15.5,27.5625,1.0625,27.6875,-4.875,148.4375,21.0,-121.0625,0.126220703125,0.8515625,0.48968505859375,-0.1383056640625,-296.0,-697.0,367.0,352.0,783.0,-472.0,
162,2.564091205596924,0.016611099243164062,60.20071190722241,63.180279877090484,2.564524023339285e-38,56.0,89.0,-107.0,-15.5,-15.5,27.5625,-4.8125,29.0625,-6.5625,148.0625,21.125,-120.9375,0.12457275390625,0.85107421875,0.49041748046875,-0.14007568359375,-296.0,-694.0,362.0,353.0,784.0,-470.0,
163,2.57961106300354,0.015519857406616211,64.43358168830171,63.187820186432624,2.564524023339285e-38,48.0,103.0,-121.0,-15.875,-12.1875,27.375,-23.8125,33.875,-10.8125,147.3125,21.375,-120.0625,0.119140625,0.8480224609375,0.4954833984375,-0.145263671875,-310.0,-681.0,327.0,357.0,790.0,-457.0,
164,2.5944199562072754,0.014808893203735352,67.5269911290712,63.212588080669846,2.564524023339285e-38,47.0,108.0,-130.0,-15.875,-12.1875,27.375,-30.4375,35.5625,-11.75,147.0625,21.4375,-119.625,0.1171875,0.846435546875,0.4981689453125,-0.14703369140625,-311.0,-682.0,319.0,358.0,793.0,-451.0,
165,2.610788106918335,0.01636815071105957,61.09425662389116,63.19930735197009,2.564524023339285e-38,49.0,114.0,-128.0,-15.875,-12.1875,27.375,-37.3125,36.9375,-12.6875,146.9375,21.5,-119.125,0.11517333984375,0.84454345703125,0.5013427734375,-0.14874267578125,-309.0,-682.0,315.0,359.0,796.0,-444.0,
166,2.625502347946167,0.014714241027832031,67.96137144338583,63.22599563845587,2.564524023339285e-38,46.0,116.0,-132.0,-15.875,-11.5,26.75,-44.5625,38.25,-13.6875,146.8125,21.5625,-118.5,0.11309814453125,0.84228515625,0.50506591796875,-0.15045166015625,-314.0,-684.0,303.0,360.0,801.0,-435.0,
167,2.641735315322876,0.016232967376708984,61.60303146021209,63.216022828384325,2.564524023339285e-38,48.0,127.0,-138.0,-15.875,-11.5,26.75,-66.625,43.125,-17.125,146.625,21.6875,-116.3125,0.10662841796875,0.83343505859375,0.5194091796875,-0.1556396484375,-303.0,-686.0,269.0,363.0,816.0,-404.0,
168,2.658694267272949,0.016958951950073242,58.96590797261391,63.18891271854262,2.564524023339285e-38,63.0,132.0,-130.0,-15.875,-11.5,26.75,-73.9375,44.5625,-18.875,146.625,21.75,-115.375,0.10430908203125,0.82977294921875,0.5252685546875,-0.1572265625,-300.0,-690.0,260.0,363.0,822.0,-391.0,
169,2.6755471229553223,0.016852855682373047,59.33712474888946,63.16465090449542,2.564524023339285e-38,67.0,136.0,-126.0,-15.5,-9.0,23.1875,-80.9375,46.25,-20.8125,146.6875,21.75,-114.4375,0.10186767578125,0.82568359375,0.5316162109375,-0.15887451171875,-296.0,-692.0,249.0,363.0,829.0,-376.0,
170,2.6917009353637695,0.016153812408447266,61.90489122413437,63.157090658374116,2.564524023339285e-38,58.0,150.0,-139.0,-15.5,-9.0,23.1875,-104.25,50.6875,-27.3125,147.125,21.625,-111.0,0.09381103515625,0.81109619140625,0.5538330078125,-0.1632080078125,-301.0,-693.0,198.0,361.0,850.0,-326.0,
171,2.706515312194824,0.014814376831054688,67.50199562250548,63.180872921546154,2.564524023339285e-38,72.0,165.0,-118.0,-15.5,-9.0,23.1875,-111.625,52.0625,-29.75,147.375,21.5,-109.6875,0.09088134765625,0.8052978515625,0.562255859375,-0.16448974609375,-287.0,-692.0,189.0,360.0,858.0,-307.0,
172,2.721055030822754,0.014539718627929688,68.77712186803096,63.21077598639859,2.564524023339285e-38,97.0,184.0,-123.0,-10.75,-7.0625,16.5625,-119.4375,54.1875,-32.8125,147.625,21.375,-108.25,0.0877685546875,0.799072265625,0.57122802734375,-0.1656494140625,-260.0,-682.0,163.0,357.0,866.0,-286.0,
173,2.7360172271728516,0.014962196350097656,66.83510740008923,63.230596021781004,2.564524023339285e-38,111.0,190.0,-125.0,-10.75,-7.0625,16.5625,-135.625,59.5,-41.8125,148.25,21.0,-105.25,0.0804443359375,0.78509521484375,0.59075927734375,-0.167724609375,-227.0,-679.0,105.0,351.0,883.0,-240.0,
174,2.751798152923584,0.015780925750732422,63.367638616105154,63.23138192935326,2.568685319258944e-38,505.0,634.0,-421.0,-10.75,-7.0625,16.5625,-51.6875,-25.375,-54.875,150.1875,20.125,-102.9375,0.07757568359375,0.77398681640625,0.6072998046875,-0.16156005859375,667.0,1250.0,-1859.0,337.0,897.0,-206.0,
175,2.7680671215057373,0.01626896858215332,61.46671160807187,63.22101030007024,2.568685319258944e-38,-41.0,-323.0,1272.0,1.0,-7.875,3.6875,266.4375,-117.4375,-404.75,154.4375,16.0625,-105.5,0.053466796875,0.79119873046875,0.5941162109375,-0.134765625,-312.0,-1230.0,1525.0,271.0,907.0,-252.0,
176,2.7851030826568604,0.017035961151123047,58.69935902818597,63.19335219438416,2.568685319258944e-38,465.0,360.0,-170.0,1.0,-7.875,3.6875,542.6875,-278.875,-1079.0625,177.1875,-2.3125,-114.5625,-0.0587158203125,0.83941650390625,0.5401611328125,-0.01318359375,452.0,-648.0,517.0,-40.0,890.0,-407.0,
177,2.8042922019958496,0.019189119338989258,52.112865751382245,63.11753100266331,2.568685319258944e-38,438.0,211.0,113.0,1.0,-7.875,3.6875,539.8125,-364.875,-1214.4375,217.5,-26.25,-127.3125,-0.19903564453125,0.85577392578125,0.45220947265625,0.153564453125,890.0,-502.0,637.0,-434.0,699.0,-533.0,
178,2.8211402893066406,0.016848087310791016,59.35391843319277,63.095054391551564,2.568685319258944e-38,467.0,198.0,90.0,13.6875,-3.5625,2.5625,480.0625,-373.75,-1168.4375,239.4375,-37.125,-134.875,-0.2613525390625,0.8443603515625,0.4061279296875,0.23187255859375,1059.0,-355.0,641.0,-592.0,553.0,-551.0,
179,2.8381900787353516,0.017049789428710938,58.65175075511802,63.06836224294016,2.568685319258944e-38,518.0,196.0,59.0,13.6875,-3.5625,2.5625,402.0625,-416.25,-1182.25,281.9375,-56.25,-159.125,-0.37738037109375,0.78533935546875,0.30902099609375,0.3812255859375,1334.0,2.0,567.0,-815.0,193.0,-508.0,
180,2.8534042835235596,0.015214204788208008,65.72804914359143,63.08254355661263,2.568685319258944e-38,530.0,196.0,53.0,13.6875,-3.5625,2.5625,316.8125,-448.4375,-1193.75,315.5625,-63.875,151.8125,-0.48028564453125,0.6806640625,0.208984375,0.51226806640625,1422.0,398.0,427.0,-880.0,-203.0,-380.0,
181,2.86771821975708,0.014313936233520508,69.86198510918267,63.11638247893554,2.568685319258944e-38,567.0,183.0,32.0,10.5625,8.75,3.75,271.6875,-460.0625,-1199.0625,328.625,-59.625,127.1875,-0.526123046875,0.61309814453125,0.1591796875,0.5673828125,1413.0,577.0,331.0,-846.0,-394.0,-299.0,
182,2.8821182250976562,0.014400005340576172,69.44441868936057,63.14799941762736,2.568685319258944e-38,577.0,175.0,22.0,10.5625,8.75,3.75,180.0,-476.6875,-1209.25,349.1875,-41.625,101.0,-0.605224609375,0.4530029296875,0.0615234375,0.6517333984375,1239.0,884.0,142.0,-652.0,-718.0,-140.0,
183,2.8989040851593018,0.016785860061645508,59.57395071372772,63.12730418948777,2.568685319258944e-38,613.0,144.0,-9.0,10.5625,8.75,3.75,180.0,-476.6875,-1209.25,357.625,-30.6875,95.125,-0.637939453125,0.36297607421875,0.0140380859375,0.67901611328125,1114.0,983.0,66.0,-501.0,-839.0,-75.0,
184,2.937134027481079,0.038229942321777344,26.157507421358545,62.64610272409005,2.568685319258944e-38,749.0,-199.0,615.0,-1.0,15.875,1.75,-6.8125,-305.125,-1283.375,33.25,16.625,91.4375,-0.7158203125,-0.00042724609375,-0.199951171875,0.6690673828125,468.0,740.0,-128.0,281.0,-939.0,-24.0,
185,2.9526801109313965,0.015546083450317383,64.32488306111495,62.65494162916396,2.568685319258944e-38,483.0,148.0,-39.0,-1.0,15.875,1.75,-151.5,-78.75,-1162.375,55.875,38.9375,96.0625,-0.72174072265625,-0.1422119140625,-0.3175048828125,0.598388671875,-64.0,824.0,18.0,616.0,-758.0,-80.0,
186,2.9686672687530518,0.015987157821655273,62.550205055551416,62.654377591506496,2.568685319258944e-38,544.0,83.0,-60.0,-16.0,4.25,6.1875,-172.9375,-49.6875,-1162.4375,68.0,49.9375,99.6875,-0.71435546875,-0.20989990234375,-0.37347412109375,0.5533447265625,-206.0,705.0,45.0,751.0,-621.0,-106.0,
187,2.9816081523895264,0.01294088363647461,77.27447584656767,62.71783227119703,2.568685319258944e-38,550.0,85.0,-61.0,-16.0,4.25,6.1875,-181.0,-33.625,-1164.25,93.75,71.3125,116.9375,-0.677978515625,-0.33587646484375,-0.47735595703125,0.44677734375,-381.0,367.0,70.0,929.0,-279.0,-142.0,
188,2.9965591430664062,0.014950990676879883,66.88519989156262,62.73862487747126,2.568685319258944e-38,543.0,91.0,-71.0,-16.0,4.25,6.1875,-187.8125,-17.8125,-1166.1875,107.125,79.8125,149.25,-0.64898681640625,-0.39306640625,-0.524169921875,0.38677978515625,-421.0,179.0,80.0,965.0,-88.0,-148.0,
189,3.0122880935668945,0.01572895050048828,63.57703268053113,62.743002704034964,2.568685319258944e-38,542.0,96.0,-62.0,-16.0,4.25,6.1875,-196.0625,14.5625,-1166.25,120.5625,79.375,-143.75,-0.61297607421875,-0.44561767578125,-0.5667724609375,0.3232421875,-421.0,-9.0,82.0,963.0,106.0,-145.0,
190,3.02956223487854,0.017274141311645508,57.889997653651335,62.71533154611607,2.568685319258944e-38,1869.0,3908.0,-1156.0,-12.75,-12.75,8.0,-254.4375,51.3125,-1335.9375,168.0,42.125,-96.5,-0.43670654296875,-0.5927734375,-0.6729736328125,0.07049560546875,1762.0,894.0,-357.0,658.0,722.0,-82.0,
191,3.0469162464141846,0.01735401153564453,57.62356432378964,62.6863308844743,2.568685319258944e-38,249.0,1994.0,78.0,-12.75,-12.75,8.0,-281.5625,-22.75,-1709.0,185.6875,26.0625,-93.3125,-0.3515625,-0.63458251953125,-0.68743896484375,-0.0341796875,-181.0,1115.0,129.0,431.0,879.0,-51.0,
192,3.0642261505126953,0.017309904098510742,57.770395162734324,62.65856061827397,2.568685319258944e-38,-183.0,1700.0,192.0,-12.75,-12.75,8.0,-198.6875,42.0625,-1608.5625,201.375,10.625,-91.0625,-0.2598876953125,-0.66473388671875,-0.68829345703125,-0.1300048828125,-365.0,736.0,210.0,181.0,963.0,-18.0,
193,3.0796852111816406,0.015459060668945312,64.68698334361505,62.668742668653486,2.568685319258944e-38,158.0,395.0,53.0,6.6875,-24.0,4.6875,-195.9375,49.25,-1353.3125,227.5625,-16.6875,-87.1875,-0.00494384765625,-0.68023681640625,-0.63800048828125,-0.36090087890625,995.0,-767.0,-128.0,-475.0,854.0,73.0,
194,3.0948381423950195,0.015152931213378906,65.99383221096356,62.685022955632874,2.568685319258944e-38,520.0,87.0,-55.0,6.6875,-24.0,4.6875,-192.0,29.75,-1276.625,249.8125,-41.0,-82.5,0.0740966796875,-0.6676025390625,-0.60748291015625,-0.42401123046875,1095.0,-672.0,-128.0,-643.0,733.0,95.0,
195,3.1102051734924316,0.01536703109741211,65.07437862661743,62.696828383522885,2.568685319258944e-38,-170.0,-121.0,127.0,6.6875,-24.0,4.6875,-182.875,61.3125,-1210.5625,259.9375,-52.625,-79.4375,0.1512451171875,-0.64935302734375,-0.57098388671875,-0.47894287109375,608.0,-706.0,19.0,-779.0,585.0,108.0,
196,3.1257100105285645,0.015504837036132812,64.49600196826178,62.705753041644435,2.5582820794597967e-38,10.0,-519.0,126.0,30.0,-3.875,4.1875,-151.3125,76.1875,-1084.25,268.9375,-63.0,-75.5,0.21954345703125,-0.62860107421875,-0.53216552734375,-0.52288818359375,-16.0,-950.0,15.0,-873.0,430.0,111.0,
197,3.1414761543273926,0.015766143798828125,63.42705056859424,62.709373021543364,2.5582820794597967e-38,164.0,-144.0,-15.0,30.0,-3.875,4.1875,-129.0,61.1875,-1005.0,286.0,-80.9375,-46.4375,0.3931884765625,-0.54486083984375,-0.40118408203125,-0.62249755859375,1179.0,-70.0,-123.0,-974.0,-51.0,95.0,
198,3.1557953357696533,0.014319181442260742,69.83639421235785,62.7417113384226,2.5582820794597967e-38,-14.0,-453.0,7.0,30.0,-3.875,4.1875,-111.625,71.9375,-947.75,302.625,-76.875,68.625,0.44366455078125,-0.51171875,-0.35296630859375,-0.6455078125,940.0,-245.0,-73.0,-955.0,-207.0,80.0,
199,3.172229051589966,0.0164337158203125,60.85051067780873,62.73191398340495,2.5582820794597967e-38,-106.0,-747.0,20.0,25.375,20.0,9.0,-98.625,70.1875,-924.25,310.875,-68.4375,79.5625,0.48956298828125,-0.47650146484375,-0.30328369140625,-0.664306640625,805.0,-392.0,-44.0,-912.0,-354.0,65.0,
200,3.191772222518921,0.019543170928955078,51.1687690618519,62.661113029601346,2.5582820794597967e-38,47.0,-943.0,-31.0,25.375,20.0,9.0,-93.4375,76.25,-947.4375,328.1875,-50.5625,87.375,0.60943603515625,-0.35284423828125,-0.1397705078125,-0.69610595703125,954.0,155.0,-61.0,-648.0,-735.0,8.0,
201,3.214478015899658,0.022705793380737305,44.04162335275896,62.52959236485702,2.5582820794597967e-38,462.0,-476.0,-72.0,6.0625,28.875,13.5625,-84.1875,87.125,-955.375,356.1875,-22.9375,91.9375,0.66998291015625,-0.25848388671875,-0.0230712890625,-0.695556640625,845.0,425.0,-32.0,-522.0,-829.0,-11.0,
202,3.229842185974121,0.01536417007446289,65.08649638434561,62.541755407494236,2.5582820794597967e-38,817.0,-788.0,-110.0,6.0625,28.875,13.5625,-89.375,92.3125,-977.0625,6.1875,-13.5,92.9375,0.6943359375,-0.20770263671875,0.0374755859375,-0.68798828125,1046.0,164.0,-61.0,-64.0,-976.0,-66.0,
203,3.245058059692383,0.015215873718261719,65.72083986211219,62.55666193511604,2.5582820794597967e-38,1140.0,-862.0,-104.0,6.0625,28.875,13.5625,-88.9375,94.625,-1007.9375,16.75,-3.75,93.875,0.7291259765625,-0.09716796875,0.16265869140625,-0.65765380859375,1033.0,108.0,-24.0,107.0,-971.0,-80.0,
204,3.261179208755493,0.01612114906311035,62.030317819483265,62.55406003212223,2.5582820794597967e-38,1034.0,-554.0,-83.0,6.0625,28.875,13.5625,-81.625,96.5,-1044.875,39.0,16.375,95.5,0.73797607421875,-0.03912353515625,0.22503662109375,-0.63494873046875,757.0,381.0,7.0,277.0,-936.0,-90.0,
205,3.2768959999084473,0.0157167911529541,63.62621926245051,62.55920236886598,2.5582820794597967e-38,666.0,116.0,-45.0,-17.875,21.375,14.875,-78.0,98.0625,-1054.6875,50.4375,26.625,96.3125,0.7408447265625,0.019775390625,0.28631591796875,-0.6072998046875,172.0,887.0,60.0,439.0,-871.0,-96.0,
206,3.2929611206054688,0.016065120697021484,62.24665340892226,62.55767755986238,2.5582820794597967e-38,1534.0,405.0,-42.0,-17.875,21.375,14.875,-74.875,107.5,-1113.0,74.3125,47.8125,98.3125,0.72723388671875,0.14080810546875,0.40576171875,-0.535400390625,263.0,903.0,80.0,726.0,-651.0,-95.0,
207,3.3091611862182617,0.01620006561279297,61.72814505209866,62.553616566668786,2.5582820794597967e-38,2518.0,457.0,-181.0,-17.875,21.375,14.875,-71.375,143.25,-1309.1875,101.1875,72.0625,103.25,0.67864990234375,0.27337646484375,0.5267333984375,-0.43267822265625,1585.0,750.0,-112.0,933.0,-293.0,-69.0,
208,3.3255932331085205,0.01643204689025879,60.85669099403665,62.54523190906811,2.5582820794597967e-38,1214.0,645.0,106.0,-29.5,-3.5625,14.0625,-52.4375,159.9375,-1345.9375,128.375,81.375,-98.5,0.5908203125,0.4024658203125,0.62957763671875,-0.30426025390625,244.0,501.0,127.0,969.0,144.0,-48.0,
209,3.341740131378174,0.01614689826965332,61.93139904023625,62.542265940291976,2.5582820794597967e-38,1019.0,886.0,37.0,-29.5,-3.5625,14.0625,-46.6875,185.125,-1375.0,141.625,68.25,-88.4375,0.53179931640625,0.460693359375,0.671142578125,-0.23345947265625,108.0,523.0,28.0,910.0,362.0,9.0,
210,3.3562512397766113,0.0145111083984375,68.91272344900105,62.56980928935981,2.5582820794597967e-38,718.0,2014.0,373.0,-29.5,-3.5625,14.0625,24.4375,194.5625,-1465.0,167.3125,40.375,-85.375,0.384521484375,0.567138671875,0.723876953125,-0.080322265625,83.0,1269.0,313.0,635.0,744.0,59.0,
211,3.372339963912964,0.01608872413635254,62.15533261214268,62.56783190837449,2.5582820794597967e-38,196.0,2633.0,544.0,-12.0625,-31.375,12.0625,72.0,211.875,-1505.1875,179.875,25.75,-85.5,0.29656982421875,0.61395263671875,0.73150634765625,-0.00079345703125,-229.0,1752.0,476.0,426.0,880.0,68.0,
212,3.3904850482940674,0.018145084381103516,55.11134470343994,62.52792652976554,2.5582820794597967e-38,277.0,211.0,60.0,-12.0625,-31.375,12.0625,57.4375,156.875,-1280.9375,202.25,-0.0625,-86.4375,0.13092041015625,0.67218017578125,0.71502685546875,0.1407470703125,279.0,-766.0,0.0,-1.0,978.0,60.0,
213,3.4075350761413574,0.01705002784729004,58.65093060003076,62.508527495833754,2.5582820794597967e-38,485.0,25.0,46.0,-12.0625,-31.375,12.0625,96.5625,150.0625,-1180.0,222.75,-23.125,-88.625,-0.02197265625,0.69903564453125,0.66546630859375,0.26068115234375,871.0,-875.0,25.0,-386.0,901.0,21.0,
214,3.4232401847839355,0.015705108642578125,63.67354870051008,62.51387236899564,2.5582820794597967e-38,-1193.0,-157.0,-159.0,25.375,-29.0625,15.375,113.3125,128.625,-1134.6875,244.0625,-45.4375,-92.8125,-0.0968017578125,0.70257568359375,0.62982177734375,0.3167724609375,824.0,-764.0,14.0,-556.0,807.0,-5.0,
215,3.4412829875946045,0.018042802810668945,55.42376151274495,62.476698596148054,2.5582820794597967e-38,-2273.0,-550.0,-215.0,25.375,-29.0625,15.375,100.0,90.25,-950.9375,253.4375,-54.5,-95.625,-0.2239990234375,0.69158935546875,0.55035400390625,0.41070556640625,-1474.0,-1116.0,-159.0,-798.0,566.0,-55.0,
216,3.4554171562194824,0.01413416862487793,70.7505355666886,62.510542210863534,2.5582820794597967e-38,78.0,-100.0,-11.0,25.375,-29.0625,15.375,101.3125,108.8125,-879.9375,271.25,-70.75,-108.375,-0.32666015625,0.667236328125,0.4681396484375,0.478515625,1004.0,-406.0,90.0,-926.0,306.0,-101.0,
217,3.471900224685669,0.016483068466186523,60.66831561437767,62.501796122221876,2.5582820794597967e-38,-8.0,-177.0,-7.0,36.1875,3.1875,19.0625,103.4375,98.875,-843.375,280.1875,-77.6875,-125.5625,-0.3729248046875,0.65032958984375,0.42437744140625,0.5078125,949.0,-347.0,114.0,-958.0,169.0,-121.0,
218,3.4849910736083984,0.013090848922729492,76.38923998761543,62.55396223275843,2.5582820794597967e-38,-432.0,-752.0,-113.0,36.1875,3.1875,19.0625,95.5,98.0625,-764.0,297.375,-79.4375,150.0,-0.45379638671875,0.61090087890625,0.3370361328125,0.5543212890625,531.0,-663.0,41.0,-964.0,-89.0,-155.0,
219,3.5083022117614746,0.023311138153076172,42.89794832982184,62.42335659277279,2.560362727419626e-38,-221.0,-763.0,-71.0,36.1875,3.1875,19.0625,96.375,90.5625,-775.9375,315.0,-66.9375,117.4375,-0.5252685546875,0.560546875,0.244873046875,0.591552734375,681.0,-423.0,105.0,-902.0,-340.0,-176.0,
220,3.5257561206817627,0.017453908920288086,57.29375606157881,62.39796300983501,2.560362727419626e-38,37.0,-673.0,-49.0,26.1875,24.375,21.5,94.3125,83.5,-778.5,332.875,-52.4375,108.1875,-0.5880126953125,0.4993896484375,0.14886474609375,0.61865234375,815.0,-105.0,136.0,-777.0,-567.0,-186.0,
221,3.541283130645752,0.015527009963989258,64.40390019193858,62.40675818533062,2.560362727419626e-38,114.0,-740.0,-57.0,26.1875,24.375,21.5,92.75,76.8125,-776.9375,341.8125,-45.0,105.5625,-0.61553955078125,0.4649658203125,0.100341796875,0.62835693359375,808.0,-72.0,128.0,-694.0,-667.0,-186.0,
222,3.555741310119629,0.014458179473876953,69.16500115431549,62.43423821867712,2.560362727419626e-38,377.0,-856.0,-29.0,26.1875,24.375,21.5,95.25,64.875,-793.3125,359.625,-29.9375,101.9375,-0.662841796875,0.38787841796875,0.00177001953125,0.6405029296875,866.0,-25.0,146.0,-489.0,-831.0,-176.0,
223,3.5709831714630127,0.015241861343383789,65.60878474557713,62.44778798793333,2.560362727419626e-38,465.0,-820.0,-8.0,6.375,36.5,19.75,97.4375,60.4375,-802.0,8.5,-22.1875,100.5,-0.6822509765625,0.345458984375,-0.048095703125,0.642578125,836.0,71.0,157.0,-370.0,-892.0,-166.0,
224,3.586143970489502,0.015160799026489258,65.9595842048153,62.462634474048855,2.560362727419626e-38,671.0,-717.0,15.0,6.375,36.5,19.75,102.125,51.4375,-835.25,26.25,-6.25,98.1875,-0.71221923828125,0.2523193359375,-0.14892578125,0.63787841796875,779.0,247.0,154.0,-107.0,-964.0,-139.0,
225,3.600446939468384,0.014302968978881836,69.91555399976663,62.49224159743398,2.560362727419626e-38,861.0,-689.0,81.0,6.375,36.5,19.75,105.125,47.125,-854.0625,35.0625,1.875,97.125,-0.72222900390625,0.20159912109375,-0.199462890625,0.63079833984375,827.0,282.0,203.0,33.0,-972.0,-122.0,
226,3.6150410175323486,0.014594078063964844,68.52094360582892,62.51657973006047,2.560362727419626e-38,790.0,-337.0,61.0,-18.75,33.375,15.25,115.0,45.9375,-880.625,52.5,18.75,95.125,-0.7303466796875,0.09454345703125,-0.29925537109375,0.606689453125,474.0,586.0,144.0,316.0,-924.0,-83.0,
227,3.637773036956787,0.022732019424438477,43.99081231317846,62.40081437018373,2.560362727419626e-38,928.0,-14.0,93.0,-18.75,33.375,15.25,118.5625,37.1875,-929.5625,69.75,36.5,93.125,-0.72216796875,-0.020751953125,-0.39556884765625,0.5670166015625,344.0,772.0,136.0,583.0,-787.0,-43.0,
228,3.653778314590454,0.016005277633666992,62.479391041396674,62.401158573178556,2.560362727419626e-38,1205.0,180.0,98.0,-18.75,33.375,15.25,134.3125,32.6875,-1028.625,87.75,55.8125,90.5625,-0.6937255859375,-0.147216796875,-0.4886474609375,0.50823974609375,394.0,730.0,104.0,811.0,-550.0,-5.0,
229,3.6697802543640137,0.01600193977355957,62.49242367805474,62.401556531260624,2.560362727419626e-38,2081.0,462.0,271.0,-39.5625,11.5,12.0,145.25,16.5625,-1097.375,97.1875,66.4375,88.75,-0.67022705078125,-0.21588134765625,-0.53265380859375,0.4696044921875,1182.0,854.0,263.0,898.0,-391.0,8.0,
230,3.68513822555542,0.01535797119140625,65.11276701440636,62.41285561692456,2.560362727419626e-38,1338.0,699.0,193.0,-39.5625,11.5,12.0,143.1875,30.9375,-1165.8125,116.875,88.125,1.0625,-0.6019287109375,-0.35357666015625,-0.61029052734375,0.37451171875,358.0,718.0,168.0,980.0,-18.0,24.0,
231,3.6991541385650635,0.014015913009643555,71.34747478183952,62.44670844930162,2.560362727419626e-38,1078.0,730.0,70.0,-39.5625,11.5,12.0,127.6875,59.3125,-1183.625,127.0625,79.4375,-79.375,-0.55670166015625,-0.41632080078125,-0.6436767578125,0.32012939453125,113.0,554.0,37.0,964.0,176.0,32.0,
232,3.7186641693115234,0.01951003074645996,51.255685498160844,62.38799456928445,2.560362727419626e-38,837.0,1326.0,-43.0,-37.375,-22.75,9.5625,109.0625,51.6875,-1252.375,148.5625,55.6875,-86.1875,-0.44647216796875,-0.531005859375,-0.69329833984375,0.195068359375,27.0,774.0,-80.0,810.0,551.0,36.0,
233,3.7352750301361084,0.01661086082458496,60.20157597852765,62.37827151151164,2.560362727419626e-38,274.0,2206.0,-117.0,-37.375,-22.75,9.5625,92.125,28.1875,-1323.875,172.125,30.4375,-88.5,-0.312744140625,-0.6256103515625,-0.71307373046875,0.04901123046875,-223.0,1361.0,-139.0,497.0,844.0,21.0,
234,3.7528271675109863,0.01755213737487793,56.973118352599194,62.35299137295402,2.560362727419626e-38,-306.0,634.0,47.0,-37.375,-22.75,9.5625,48.8125,15.25,-1135.5,194.5,7.25,-89.75,-0.17718505859375,-0.68328857421875,-0.70263671875,-0.0894775390625,-430.0,-338.0,44.0,124.0,972.0,3.0,
235,3.7673981189727783,0.014570951461791992,68.62969811012026,62.37726743465999,2.560362727419626e-38,446.0,48.0,29.0,-1.875,-46.5625,12.5,39.4375,26.0,-1081.125,204.6875,-3.125,-90.125,-0.11309814453125,-0.6990966796875,-0.68975830078125,-0.15093994140625,500.0,-930.0,32.0,-53.0,979.0,-2.0,
236,3.7871830463409424,0.019784927368164062,50.54352646293261,62.31544583724724,2.560362727419626e-38,80.0,116.0,-56.0,-1.875,-46.5625,12.5,36.25,34.0,-1026.1875,224.0625,-23.0625,-91.125,0.0128173828125,-0.71337890625,-0.64935302734375,-0.26318359375,465.0,-785.0,-38.0,-384.0,901.0,-17.0,
237,3.8033881187438965,0.0162050724029541,61.70907325398343,62.312862269305135,2.560362727419626e-38,-1840.0,17.0,-111.0,-1.875,-46.5625,12.5,5.9375,-16.5,-887.125,242.4375,-41.1875,-91.625,0.12420654296875,-0.70391845703125,-0.5980224609375,-0.362548828125,-1194.0,-719.0,-89.0,-646.0,737.0,-21.0,
238,3.817805051803589,0.014416933059692383,69.36288015346706,62.3394848009762,2.560362727419626e-38,-252.0,-120.0,-44.0,34.25,-30.5,13.75,5.6875,13.875,-817.8125,250.25,-49.0625,-92.0625,0.1729736328125,-0.69439697265625,-0.57110595703125,-0.402099609375,489.0,-761.0,-20.0,-741.0,641.0,-23.0,
239,3.833773136138916,0.01596808433532715,62.624919746173944,62.34067366873528,2.560362727419626e-38,-359.0,-253.0,-33.0,34.25,-30.5,13.75,8.375,0.25,-759.75,265.625,-64.25,-93.3125,0.26220703125,-0.66632080078125,-0.511962890625,-0.4744873046875,523.0,-678.0,-8.0,-883.0,425.0,-25.0,
240,3.850032091140747,0.016258955001831055,61.504567783561846,62.33714273505941,2.560362727419626e-38,-587.0,-413.0,-42.0,34.25,-30.5,13.75,4.625,0.8125,-695.4375,272.375,-70.9375,-94.5625,0.3006591796875,-0.65008544921875,-0.48297119140625,-0.50372314453125,339.0,-732.0,-16.0,-927.0,318.0,-25.0,
241,3.8655552864074707,0.015523195266723633,64.4197269194735,62.3455059218615,2.560362727419626e-38,-468.0,-540.0,-35.0,46.5,-3.0,12.1875,0.0,0.3125,-659.9375,285.1875,-83.625,-173.8125,0.37152099609375,-0.612548828125,-0.42364501953125,-0.55438232421875,506.0,-645.0,-9.0,-974.0,104.0,-25.0,
242,3.8814451694488525,0.015889883041381836,62.93312527195523,62.347911521409664,2.56316084019319e-38,-334.0,-608.0,-31.0,46.5,-3.0,12.1875,2.6875,-4.375,-637.0625,297.625,-83.5,173.6875,0.435302734375,-0.5684814453125,-0.3612060546875,-0.597412109375,640.0,-501.0,-6.0,-974.0,-107.0,-24.0,
243,3.8969180583953857,0.015472888946533203,64.6291719313384,62.35696936877828,2.56316084019319e-38,-329.0,-707.0,-19.0,46.5,-3.0,12.1875,4.0,-4.875,-625.1875,303.75,-77.5625,96.5,0.46429443359375,-0.5445556640625,-0.32916259765625,-0.61602783203125,627.0,-497.0,4.0,-957.0,-209.0,-23.0,
244,3.9125213623046875,0.015603303909301758,64.0889907555963,62.36387674475744,2.56316084019319e-38,-330.0,-830.0,-19.0,46.5,-3.0,12.1875,4.0,-3.5,-621.1875,315.8125,-65.625,93.125,0.51800537109375,-0.4930419921875,-0.26275634765625,-0.647705078125,636.0,-434.0,7.0,-893.0,-403.0,-22.0,
245,3.928713321685791,0.016191959381103516,61.7590482080278,62.3613839797483,2.56316084019319e-38,-256.0,-838.0,-14.0,41.25,18.1875,11.0625,6.0625,-2.0625,-619.75,321.875,-59.5625,92.5,0.5428466796875,-0.46533203125,-0.22796630859375,-0.660888671875,742.0,-290.0,3.0,-845.0,-495.0,-22.0,
246,3.944392204284668,0.015678882598876953,63.780055351114626,62.367023170966114,2.56316084019319e-38,14.0,-804.0,-22.0,41.25,18.1875,11.0625,11.25,4.0625,-624.625,334.1875,-47.5,91.75,0.58770751953125,-0.406494140625,-0.1561279296875,-0.681884765625,738.0,-142.0,-1.0,-723.0,-661.0,-20.0,
247,3.9622130393981934,0.01782083511352539,56.11409306183609,62.338899383743374,2.56316084019319e-38,84.0,-881.0,-18.0,30.5625,36.5,9.875,16.0625,10.125,-633.9375,346.6875,-35.3125,91.3125,0.62603759765625,-0.34320068359375,-0.0810546875,-0.69549560546875,774.0,-68.0,-2.0,-567.0,-799.0,-19.0,
248,3.9789931774139404,0.01678013801574707,59.594265497790595,62.32732476339207,2.56316084019319e-38,206.0,-868.0,-22.0,30.5625,36.5,9.875,19.625,12.875,-638.0,353.0625,-29.1875,91.125,0.642578125,-0.30987548828125,-0.042236328125,-0.69952392578125,791.0,-10.0,-2.0,-478.0,-855.0,-17.0,
249,3.9944941997528076,0.015501022338867188,64.5118740002461,62.33580211867849,2.56316084019319e-38,562.0,-832.0,-7.0,30.5625,36.5,9.875,24.25,17.375,-657.1875,6.1875,-16.5625,90.75,0.67010498046875,-0.239501953125,0.0379638671875,-0.7015380859375,841.0,107.0,4.0,-279.0,-939.0,-12.0,
250,4.009245157241821,0.014750957489013672,67.79220947147245,62.35587752682818,2.56316084019319e-38,646.0,-820.0,7.0,30.5625,36.5,9.875,26.1875,17.1875,-672.5625,12.875,-10.0625,90.5,0.6810302734375,-0.2020263671875,0.07916259765625,-0.69940185546875,817.0,145.0,16.0,-171.0,-965.0,-9.0,
251,4.02543306350708,0.01618790626525879,61.77451139225592,62.35353961675894,2.56316084019319e-38,718.0,-795.0,24.0,10.75,43.75,8.5,31.5,22.0625,-694.875,26.6875,3.25,89.9375,0.696044921875,-0.1234130859375,0.163330078125,-0.68817138671875,703.0,285.0,30.0,56.0,-979.0,0.0,
252,4.041607141494751,0.0161740779876709,61.827326464128305,62.35143376820146,2.56316084019319e-38,742.0,-360.0,18.0,10.75,43.75,8.5,35.4375,26.75,-719.9375,40.8125,17.0625,89.125,0.7010498046875,-0.0411376953125,0.24847412109375,-0.66717529296875,454.0,576.0,5.0,287.0,-937.0,13.0,
253,4.05771803855896,0.016110897064208984,62.06979015597715,62.35031552114678,2.56316084019319e-38,815.0,-302.0,38.0,10.75,43.75,8.5,35.3125,26.9375,-741.875,48.125,24.1875,88.625,0.69970703125,0.00201416015625,0.29144287109375,-0.65228271484375,413.0,591.0,17.0,402.0,-894.0,20.0,
254,4.0732362270355225,0.0155181884765625,64.44051130776795,62.3582787352502,2.56316084019319e-38,931.0,-246.0,34.0,-13.6875,42.1875,6.0,36.3125,29.1875,-767.5625,55.625,31.625,88.0625,0.68768310546875,0.09307861328125,0.37860107421875,-0.6124267578125,412.0,606.0,28.0,622.0,-756.0,36.0,
255,4.09135627746582,0.01812005043029785,55.18748437520559,62.326520279956306,2.56316084019319e-38,976.0,14.0,10.0,-13.6875,42.1875,6.0,44.3125,34.125,-878.625,79.875,55.875,84.3125,0.66033935546875,0.19049072265625,0.46636962890625,-0.556884765625,427.0,789.0,-9.0,812.0,-661.0,45.0,
256,4.106983184814453,0.015626907348632812,63.992188453557915,62.33285808097743,2.56316084019319e-38,1239.0,242.0,45.0,-13.6875,42.1875,6.0,47.75,34.5625,-943.6875,88.75,64.875,81.25,0.6395263671875,0.24261474609375,0.51031494140625,-0.52130126953125,955.0,721.0,12.0,888.0,-411.0,63.0,
257,4.122575044631958,0.015591859817504883,64.1360307047724,62.339677802746614,2.56316084019319e-38,1452.0,441.0,118.0,-33.5625,26.1875,5.25,50.1875,36.625,-983.1875,97.9375,74.125,74.5,0.61346435546875,0.2952880859375,0.5526123046875,-0.480712890625,509.0,699.0,46.0,943.0,-258.0,71.0,
258,4.140656232833862,0.018081188201904297,55.30609984440518,62.308963964251866,2.56316084019319e-38,1011.0,622.0,64.0,-33.5625,26.1875,5.25,31.9375,91.4375,-1005.875,116.5,83.1875,-3.9375,0.54583740234375,0.39263916015625,0.62945556640625,-0.389404296875,37.0,554.0,-29.0,973.0,67.0,93.0,
259,4.157654047012329,0.016997814178466797,58.83109378068281,62.29474532305452,2.56316084019319e-38,886.0,939.0,-34.0,-33.5625,26.1875,5.25,30.625,87.5,-1055.5,135.6875,64.8125,-73.25,0.45733642578125,0.47930908203125,0.69384765625,-0.2822265625,-32.0,811.0,-93.0,887.0,399.0,119.0,
260,4.171690940856934,0.014036893844604492,71.2408322717622,62.32484709104355,2.56316084019319e-38,758.0,1374.0,63.0,-41.375,-6.375,1.25,33.5,77.9375,-1094.0,145.6875,54.4375,-77.0,0.40594482421875,0.51947021484375,0.718505859375,-0.2215576171875,-39.0,818.0,-65.0,797.0,555.0,128.0,
261,4.186975002288818,0.015284061431884766,65.42763547873834,62.33617345633156,2.56316084019319e-38,520.0,1532.0,128.0,-41.375,-6.375,1.25,53.3125,80.8125,-1145.625,166.125,32.625,-80.625,0.2886962890625,0.590087890625,0.7484130859375,-0.09100341796875,-668.0,1095.0,2.0,529.0,814.0,134.0,
262,4.204730033874512,0.01775503158569336,56.32206257553377,62.310778073563064,2.56316084019319e-38,-634.0,1810.0,74.0,-41.375,-6.375,1.25,46.1875,73.25,-1033.1875,185.1875,11.875,-82.25,0.16680908203125,0.6376953125,0.751220703125,0.034423828125,-770.0,203.0,-108.0,202.0,950.0,128.0,
263,4.2203590869903564,0.015629053115844727,63.98340274281879,62.316972224169646,2.56316084019319e-38,46.0,198.0,4.0,-20.0625,-38.5625,0.5625,40.875,62.25,-948.5,193.8125,2.75,-82.75,0.11151123046875,0.6517333984375,0.7447509765625,0.09039306640625,0.0,-773.0,-118.0,47.0,971.0,123.0,
264,4.235994100570679,0.015635013580322266,63.95901064381347,62.323032972220986,2.56316084019319e-38,86.0,126.0,-12.0,-20.0625,-38.5625,0.5625,43.0625,47.8125,-850.0625,209.6875,-13.9375,-83.5,0.0091552734375,0.66741943359375,0.7197265625,0.19091796875,184.0,-785.0,-132.0,-237.0,945.0,106.0,
265,4.254185914993286,0.018191814422607422,54.96977798747084,62.29158887157338,2.5622281359353354e-38,-567.0,271.0,-56.0,-20.0625,-38.5625,0.5625,36.0,27.75,-789.6875,225.0625,-29.5625,-83.75,-0.0841064453125,0.6678466796875,0.68304443359375,0.283447265625,-724.0,-685.0,-137.0,-483.0,847.0,92.0,
266,4.269101142883301,0.014915227890014648,67.04557297910772,62.30819816565572,2.5622281359353354e-38,-627.0,11.0,-48.0,16.1875,-41.875,5.0,36.8125,35.5625,-735.75,232.0625,-36.625,-83.875,-0.12652587890625,0.664306640625,0.68304443359375,0.32354736328125,-724.0,-685.0,-137.0,-483.0,847.0,92.0,
267,4.282039165496826,0.01293802261352539,77.2915637784248,62.353469849456914,2.5622281359353354e-38,-351.0,-51.0,-15.0,16.1875,-41.875,5.0,35.4375,28.0,-667.5,245.25,-49.8125,-83.75,-0.2032470703125,0.65106201171875,0.6158447265625,0.39447021484375,172.0,-768.0,-102.0,-749.0,629.0,68.0,
268,4.29978609085083,0.017746925354003906,56.34778870439035,62.328682017520755,2.5622281359353354e-38,-941.0,-394.0,-34.0,16.1875,-41.875,5.0,36.1875,18.9375,-627.6875,251.5,-55.8125,-83.5,-0.23724365234375,0.641845703125,0.59173583984375,0.42608642578125,-129.0,-941.0,-89.0,-811.0,546.0,62.0,
269,4.315640211105347,0.0158541202545166,63.07508609410951,62.33142403942477,2.5622281359353354e-38,-657.0,-350.0,-49.0,16.1875,-41.875,5.0,33.6875,23.875,-581.375,257.25,-61.4375,-83.125,-0.2684326171875,0.63201904296875,0.56781005859375,0.4539794921875,203.0,-815.0,-105.0,-861.0,464.0,55.0,
270,4.328992128372192,0.013351917266845703,74.89561087104032,62.3701757807369,2.5622281359353354e-38,-490.0,-324.0,-30.0,40.6875,-25.375,8.0,31.875,25.875,-558.3125,262.8125,-66.8125,-82.5625,-0.29791259765625,0.62115478515625,0.54351806640625,0.47955322265625,411.0,-706.0,-80.0,-901.0,382.0,49.0,
271,4.344686031341553,0.01569390296936035,63.71901253323205,62.37504805757404,2.5622281359353354e-38,-660.0,-562.0,-58.0,40.6875,-25.375,8.0,26.375,17.3125,-491.0625,278.1875,-81.5625,-75.5625,-0.3751220703125,0.58404541015625,0.47113037109375,0.5443115234375,334.0,-744.0,-82.0,-970.0,139.0,35.0,
272,4.359347343444824,0.014661312103271484,68.20671935473379,62.39466107443995,2.5622281359353354e-38,-573.0,-607.0,-45.0,40.6875,-25.375,8.0,24.0625,14.375,-484.1875,283.125,-86.0,-3.4375,-0.39813232421875,0.56982421875,0.44683837890625,0.56317138671875,404.0,-666.0,-78.0,-978.0,59.0,32.0,
273,4.372809171676636,0.013461828231811523,74.28411526132157,62.431263126747766,2.5622281359353354e-38,-485.0,-629.0,-24.0,52.1875,-3.0,10.0,25.0,9.875,-474.1875,287.9375,-87.8125,1.0625,-0.4197998046875,0.55487060546875,0.42236328125,0.5809326171875,494.0,-610.0,-55.0,-979.0,-18.0,31.0,
274,4.387899160385132,0.015089988708496094,66.26910194021362,62.44446145748496,2.5622281359353354e-38,-492.0,-696.0,-25.0,52.1875,-3.0,10.0,27.0625,7.625,-456.3125,297.375,-79.875,80.125,-0.45953369140625,0.5233154296875,0.3729248046875,0.6131591796875,517.0,-566.0,-52.0,-965.0,-169.0,29.0,
275,4.4050140380859375,0.017114877700805664,58.42869680295326,62.428858937188025,2.5622281359353354e-38,-368.0,-814.0,-8.0,52.1875,-3.0,10.0,21.25,2.0,-436.3125,306.375,-71.3125,84.5,-0.49530029296875,0.48931884765625,0.32354736328125,0.6407470703125,701.0,-609.0,-14.0,-929.0,-311.0,29.0,
276,4.4218223094940186,0.016808271408081055,59.49451765273266,62.417704892257916,2.5622281359353354e-38,-311.0,-981.0,-4.0,55.6875,21.5625,12.75,15.0625,-3.8125,-422.3125,310.625,-67.25,85.1875,-0.511474609375,0.4715576171875,0.29998779296875,0.6527099609375,593.0,-604.0,-36.0,-904.0,-377.0,31.0,
277,4.437619924545288,0.01579761505126953,63.30069423483248,62.42084827226016,2.5622281359353354e-38,-302.0,-951.0,-3.0,55.6875,21.5625,12.75,11.75,-5.75,-412.8125,318.75,-59.25,85.9375,-0.5416259765625,0.43450927734375,0.25323486328125,0.673583984375,667.0,-311.0,-45.0,-843.0,-499.0,35.0,
278,4.453288316726685,0.015668392181396484,63.82275784412185,62.42578073281796,2.5622281359353354e-38,-140.0,-814.0,-11.0,55.6875,21.5625,12.75,15.0625,-2.1875,-409.5625,326.875,-51.3125,86.3125,-0.56854248046875,0.396240234375,0.20513916015625,0.691162109375,658.0,-268.0,-39.0,-765.0,-611.0,38.0,
279,4.4689671993255615,0.015678882598876953,63.780055351114626,62.43053205718439,2.5622281359353354e-38,-73.0,-943.0,-4.0,42.375,46.0,13.5625,17.3125,-1.1875,-411.375,331.0,-47.375,86.4375,-0.5809326171875,0.37646484375,0.18048095703125,0.69873046875,647.0,-280.0,-45.0,-721.0,-662.0,40.0,
280,4.484975099563599,0.01600790023803711,62.46915492538203,62.4306699110202,2.5622281359353354e-38,23.0,-927.0,-1.0,42.375,46.0,13.5625,17.5625,1.0,-414.5,339.375,-39.3125,86.5625,-0.60382080078125,0.33544921875,0.12945556640625,0.71142578125,681.0,-123.0,-59.0,-621.0,-757.0,44.0,
281,4.500499248504639,0.015524148941040039,64.4157695083931,62.43751736951554,2.5622281359353354e-38,124.0,-891.0,-12.0,42.375,46.0,13.5625,23.6875,4.375,-422.0625,347.875,-31.0625,86.5,-0.6234130859375,0.31427001953125,0.10308837890625,0.72113037109375,690.0,-92.0,-59.0,-565.0,-799.0,47.0,
282,4.516944169998169,0.016444921493530273,60.80904675607104,62.43158856668231,2.5622281359353354e-38,179.0,-924.0,0.0,42.375,46.0,13.5625,26.25,4.6875,-426.5,347.875,-31.0625,86.5,-0.6234130859375,0.29241943359375,0.0762939453125,0.72113037109375,686.0,-86.0,-50.0,-506.0,-837.0,50.0,
283,4.53232216835022,0.015377998352050781,65.02796899224806,62.44039798764194,2.5622281359353354e-38,1133.0,-1068.0,-8.0,19.5625,60.5625,12.75,37.25,-41.6875,-439.0,357.25,-18.5625,84.375,-0.64312744140625,0.20086669921875,0.0174560546875,0.73870849609375,1285.0,-78.0,1351.0,-313.0,-924.0,90.0,
284,4.550905227661133,0.018583059310913086,53.81245268978613,62.405166838852715,2.5622281359353354e-38,406.0,-588.0,-167.0,19.5625,60.5625,12.75,-30.3125,-458.875,-303.6875,355.5,-11.8125,83.875,-0.65985107421875,0.11199951171875,0.0291748046875,0.742431640625,729.0,351.0,-275.0,-257.0,-940.0,107.0,
285,4.567547082901001,0.016641855239868164,60.08945430581224,62.3967295415348,2.5622281359353354e-38,664.0,-1074.0,-51.0,-7.6875,60.0,11.0625,-163.125,-388.8125,-308.875,354.875,-8.4375,84.8125,-0.67138671875,0.11199951171875,0.0291748046875,0.737060546875,729.0,-31.0,-75.0,-200.0,-954.0,102.0,
286,4.581614017486572,0.014066934585571289,71.08869341197607,62.42341648782032,2.5622281359353354e-38,620.0,-1061.0,-205.0,-7.6875,60.0,11.0625,-163.75,-325.125,-310.5,355.0625,-2.125,87.75,-0.69329833984375,-0.00360107421875,0.03106689453125,0.719970703125,543.0,259.0,-249.0,-37.0,-979.0,87.0,
287,4.596308946609497,0.014694929122924805,68.05068548714205,62.44140751498173,2.5622281359353354e-38,506.0,-720.0,-212.0,-7.6875,60.0,11.0625,-192.375,-280.375,-301.8125,355.5625,0.6875,89.8125,-0.705078125,-0.0360107421875,0.02703857421875,0.70770263671875,463.0,369.0,-263.0,12.0,-980.0,3.0,
