Index,Time,Difference,Hz,AveHz,Pressure,Acceleration-X,Acceleration-Y,Acceleration-Z,Magnetic-X,Magnetic-Y,Magnetic-Z,Angular-Vel-X,Angular-Vel-Y,Angular-Vel-Z,Heading,Roll,Pitch,Quaternion-X,Quaternion-Y,Quaternion-Z,Quaternion-W,Linear-Acceleration-X,Linear-Acceleration-Y,Linear-Acceleration-Z,Gravity-X,Gravity-Y,Gravity-Z,
0,3.0994415283203125e-06,3.0994415283203125e-06,322638.76923076925,0.0,2.568326586852077e-38,-845.0,436.0,-129.0,-18.25,145.1875,39.6875,7.75,-4.6875,-3.0,99.1875,-60.8125,-105.75,0.7357177734375,0.158447265625,-0.50152587890625,0.4267578125,11.0,-23.0,1.0,-856.0,459.0,-130.0,
1,0.016633987426757812,0.016630887985229492,60.12908035266289,60.11787639032221,2.568326586852077e-38,-846.0,464.0,-115.0,-18.25,145.1875,39.6875,3.5,-3.8125,-3.0625,99.375,-60.875,-105.75,0.73553466796875,0.158203125,-0.50238037109375,0.42608642578125,10.0,5.0,13.0,-856.0,458.0,-129.0,
2,0.03293895721435547,0.016304969787597656,61.330993741592096,60.71837632820869,2.568326586852077e-38,-840.0,476.0,-117.0,-18.25,145.1875,39.6875,3.3125,-3.1875,-4.5,99.4375,-60.9375,-105.75,0.7354736328125,0.158203125,-0.50274658203125,0.42572021484375,16.0,17.0,12.0,-857.0,458.0,-129.0,
3,0.05006003379821777,0.017121076583862305,58.407542020024785,59.92804583577419,2.568326586852077e-38,-849.0,439.0,-126.0,-20.1875,145.875,38.875,-1.125,-1.0,-10.0,99.625,-61.125,-105.75,0.735107421875,0.1591796875,-0.50360107421875,0.425048828125,9.0,-15.0,2.0,-858.0,455.0,-128.0,
4,0.0646810531616211,0.01462101936340332,68.39468406033428,61.84191203574009,2.568326586852077e-38,-845.0,420.0,-128.0,-20.1875,145.875,38.875,-2.125,-1.75,-10.875,99.75,-61.1875,-105.75,0.73480224609375,0.159912109375,-0.50408935546875,0.42474365234375,13.0,-33.0,0.0,-859.0,454.0,-128.0,
5,0.0794839859008789,0.014802932739257812,67.55418116222137,62.905753194552766,2.568326586852077e-38,-889.0,406.0,-121.0,-20.1875,145.875,38.875,-2.375,-3.6875,-5.0,99.875,-61.375,-105.6875,0.73419189453125,0.16064453125,-0.5050048828125,0.4244384765625,-28.0,-45.0,5.0,-860.0,452.0,-127.0,
6,0.09576082229614258,0.016276836395263672,61.437000146477224,62.656103572762355,2.568326586852077e-38,-858.0,398.0,-121.0,-20.1875,145.5,39.25,-2.1875,-4.5,6.0625,99.8125,-61.3125,-105.4375,0.73388671875,0.16064453125,-0.505126953125,0.42523193359375,2.0,-53.0,4.0,-860.0,452.0,-126.0,
7,0.11305904388427734,0.017298221588134766,57.809410921520524,61.914551543217684,2.568326586852077e-38,-844.0,447.0,-108.0,-20.1875,145.5,39.25,-1.5,-5.375,8.25,99.75,-61.25,-105.3125,0.7335205078125,0.1595458984375,-0.50518798828125,0.42572021484375,15.0,-6.0,16.0,-860.0,454.0,-124.0,
8,0.12924599647521973,0.016186952590942383,61.778150913938106,61.89746853422911,2.568326586852077e-38,-840.0,467.0,-89.0,-20.1875,145.5,39.25,-2.4375,-3.0625,5.5,99.5625,-61.125,-105.0625,0.73321533203125,0.15863037109375,-0.505126953125,0.42669677734375,18.0,11.0,33.0,-859.0,456.0,-123.0,
9,0.1436309814453125,0.014384984970092773,69.51693047153394,62.660575799426326,2.568326586852077e-38,-833.0,461.0,-105.0,-20.1875,145.5,39.25,-2.375,-0.8125,3.0,99.5625,-61.125,-105.0,0.733154296875,0.15850830078125,-0.50506591796875,0.427001953125,25.0,4.0,17.0,-858.0,456.0,-122.0,
10,0.15857410430908203,0.014943122863769531,66.9204161082392,63.061998953553406,2.568326586852077e-38,-836.0,441.0,-121.0,-19.5,145.1875,39.25,-4.375,-0.875,-2.375,99.5,-61.125,-104.9375,0.7327880859375,0.15899658203125,-0.5050048828125,0.4273681640625,23.0,-15.0,0.0,-859.0,456.0,-122.0,
11,0.17427396774291992,0.01569986343383789,63.694821564160975,63.11900820566982,2.569331037591305e-38,-863.0,422.0,-91.0,-19.5,145.1875,39.25,-2.125,-3.25,-2.625,99.5,-61.1875,-104.875,0.7325439453125,0.1591796875,-0.50531005859375,0.42742919921875,-4.0,-33.0,29.0,-859.0,456.0,-121.0,
12,0.18961477279663086,0.015340805053710938,65.18562725351237,63.28620825799508,2.569331037591305e-38,-858.0,407.0,-70.0,-19.5,145.1875,39.25,-0.5625,1.5625,4.6875,99.4375,-61.125,-104.875,0.7325439453125,0.15887451171875,-0.505126953125,0.427734375,0.0,-49.0,50.0,-859.0,457.0,-121.0,
13,0.20536398887634277,0.015749216079711914,63.49522382185083,63.30223751072433,2.569331037591305e-38,-851.0,460.0,-112.0,-18.6875,146.6875,40.5625,-2.375,4.875,8.1875,99.1875,-60.9375,-104.875,0.7330322265625,0.15863037109375,-0.5045166015625,0.42852783203125,6.0,1.0,9.0,-858.0,458.0,-121.0,
14,0.22323203086853027,0.0178680419921875,55.96584116140051,62.71501426354503,2.569331037591305e-38,-844.0,474.0,-125.0,-18.6875,146.6875,40.5625,-1.375,3.5625,6.1875,99.125,-60.875,-104.9375,0.73321533203125,0.158203125,-0.50341796875,0.4288330078125,12.0,13.0,-2.0,-857.0,460.0,-122.0,
15,0.237929105758667,0.014697074890136719,68.04075011355525,63.04398931005354,2.569331037591305e-38,-846.0,454.0,-113.0,-18.6875,146.6875,40.5625,-1.875,2.5625,3.125,99.0,-60.8125,-104.9375,0.73345947265625,0.15814208984375,-0.5028076171875,0.42926025390625,9.0,-7.0,10.0,-856.0,461.0,-123.0,
16,0.25373387336730957,0.015804767608642578,63.272047065922465,63.05819474421581,2.569331037591305e-38,-846.0,454.0,-113.0,-18.6875,146.6875,40.5625,-1.875,2.5625,3.125,99.0,-60.8125,-104.9375,0.73345947265625,0.15814208984375,-0.5028076171875,0.42926025390625,6.0,-4.0,14.0,-856.0,462.0,-123.0,
17,0.270550012588501,0.016816139221191406,59.46668178982589,62.83496288671967,2.569331037591305e-38,-841.0,454.0,-121.0,-19.0625,145.5,39.25,-1.6875,1.9375,1.5,98.8125,-60.75,-104.9375,0.7335205078125,0.15850830078125,-0.50189208984375,0.4300537109375,13.0,-8.0,2.0,-855.0,462.0,-123.0,
18,0.2868659496307373,0.016315937042236328,61.28976824385539,62.74707759206053,2.569331037591305e-38,-845.0,448.0,-130.0,-19.0625,145.5,39.25,0.3125,0.75,1.5625,98.75,-60.6875,-105.0,0.73370361328125,0.158447265625,-0.50164794921875,0.4300537109375,9.0,-14.0,-6.0,-855.0,463.0,-124.0,
19,0.30333900451660156,0.016473054885864258,60.705194448062755,62.636191578060455,2.569331037591305e-38,-845.0,448.0,-130.0,-19.0625,145.5,39.25,0.3125,0.75,1.5625,98.75,-60.6875,-105.0,0.73370361328125,0.158447265625,-0.50164794921875,0.4300537109375,5.0,-13.0,6.0,-855.0,463.0,-124.0,
20,0.3191509246826172,0.015811920166015625,63.243425814234016,62.66627621364155,2.569331037591305e-38,-856.0,428.0,-116.0,-18.6875,146.25,41.0,-4.3125,1.4375,5.3125,98.625,-60.625,-104.9375,0.73358154296875,0.15814208984375,-0.50128173828125,0.43072509765625,1.0,-35.0,10.0,-854.0,464.0,-123.0,
21,0.33530402183532715,0.01615309715270996,61.90763235966997,62.62972893988554,2.569331037591305e-38,-853.0,456.0,-112.0,-18.6875,146.25,41.0,-7.25,3.375,6.8125,98.3125,-60.5,-104.8125,0.7335205078125,0.15814208984375,-0.500732421875,0.43145751953125,0.0,-8.0,10.0,-854.0,465.0,-123.0,
22,0.3510899543762207,0.015785932540893555,63.347540438899884,62.66200364259143,2.569331037591305e-38,-836.0,488.0,-121.0,-18.6875,146.25,41.0,-7.25,3.375,6.8125,98.3125,-60.5,-104.8125,0.7335205078125,0.15814208984375,-0.50018310546875,0.43212890625,17.0,21.0,2.0,-853.0,467.0,-123.0,
23,0.3660459518432617,0.014955997467041016,66.86280886338275,62.833641197727104,2.569331037591305e-38,-836.0,480.0,-137.0,-19.0625,145.875,41.0,-1.0625,-4.25,-1.5,98.25,-60.4375,-104.6875,0.733154296875,0.1580810546875,-0.500244140625,0.4327392578125,13.0,4.0,1.0,-853.0,467.0,-123.0,
24,0.38141298294067383,0.01536703109741211,65.07437862661743,62.92391993309005,2.569331037591305e-38,-840.0,471.0,-120.0,-19.0625,145.875,41.0,-7.4375,-1.625,-2.4375,98.1875,-60.5,-104.5625,0.73272705078125,0.15850830078125,-0.5003662109375,0.43316650390625,-3.0,-34.0,-4.0,-853.0,466.0,-121.0,
25,0.3974490165710449,0.016036033630371094,62.359559916741006,62.90114947493194,2.569331037591305e-38,-853.0,437.0,-132.0,-19.0625,145.875,41.0,-9.625,-1.6875,-0.5625,98.125,-60.5,-104.4375,0.73236083984375,0.1588134765625,-0.50030517578125,0.43377685546875,0.0,-29.0,-12.0,-853.0,467.0,-120.0,
26,0.41064000129699707,0.013190984725952148,75.80935167278183,63.315799527273505,2.569331037591305e-38,-844.0,440.0,-128.0,-19.0625,144.75,39.6875,-9.25,-5.1875,1.9375,98.0625,-60.5,-104.25,0.7318115234375,0.158935546875,-0.50042724609375,0.43450927734375,8.0,-26.0,-9.0,-853.0,467.0,-119.0,
27,0.42697715759277344,0.016337156295776367,61.210163010959825,63.23523289213299,2.569331037591305e-38,-839.0,476.0,-123.0,-19.0625,144.75,39.6875,-9.375,-12.375,1.375,97.875,-60.5,-103.4375,0.72955322265625,0.158447265625,-0.501708984375,0.43695068359375,5.0,6.0,-9.0,-853.0,469.0,-112.0,
28,0.44522809982299805,0.01825094223022461,54.79169170476813,62.88911236988747,2.569331037591305e-38,-841.0,481.0,-110.0,-19.0625,144.75,39.6875,-6.375,-16.125,0.3125,97.875,-60.5,-103.125,0.7286376953125,0.15814208984375,-0.50262451171875,0.43756103515625,12.0,12.0,-1.0,-854.0,469.0,-109.0,
29,0.46046996116638184,0.015241861343383789,65.60878474557713,62.979135330657144,2.569331037591305e-38,-844.0,455.0,-91.0,-18.25,145.1875,41.75,-0.375,-20.0625,-1.6875,98.0,-60.5625,-102.8125,0.727783203125,0.15753173828125,-0.50390625,0.437744140625,9.0,-13.0,15.0,-854.0,469.0,-106.0,
30,0.4762239456176758,0.015753984451293945,63.47600526658292,62.9955723059855,2.569331037591305e-38,-870.0,442.0,-128.0,-18.25,145.1875,41.75,-14.8125,-19.6875,2.375,98.0625,-60.6875,-101.5625,0.7242431640625,0.15673828125,-0.50701904296875,0.44024658203125,-6.0,-28.0,-3.0,-855.0,469.0,-100.0,
31,0.49140405654907227,0.015180110931396484,65.87567143081515,63.084542316765145,2.569331037591305e-38,-861.0,440.0,-99.0,-18.25,145.1875,41.75,-16.9375,-19.5625,5.25,97.9375,-60.6875,-101.0625,0.72283935546875,0.1563720703125,-0.5078125,0.4417724609375,-10.0,-23.0,32.0,-855.0,470.0,-92.0,
32,0.5088188648223877,0.01741480827331543,57.42239502758649,62.890749955134176,2.569331037591305e-38,-854.0,446.0,-45.0,-16.0625,143.6875,43.5,-15.75,-18.3125,8.0625,97.8125,-60.6875,-100.5625,0.7215576171875,0.1558837890625,-0.5084228515625,0.44329833984375,0.0,-25.0,42.0,-855.0,471.0,-88.0,
33,0.5243289470672607,0.015510082244873047,64.4741906723645,62.93758943613459,2.569331037591305e-38,-849.0,467.0,-49.0,-16.0625,143.6875,43.5,-15.5625,-18.625,10.9375,97.5,-60.5,-99.625,0.71923828125,0.154541015625,-0.50946044921875,0.4464111328125,4.0,6.0,-84.0,-853.0,475.0,-80.0,
34,0.539578914642334,0.015249967575073242,65.57390991667057,63.01209902269307,2.569331037591305e-38,-837.0,487.0,-142.0,-16.0625,143.6875,43.5,-24.375,-35.1875,14.1875,97.125,-60.375,-98.0625,0.7152099609375,0.1524658203125,-0.5115966796875,0.45111083984375,37.0,-3.0,-35.0,-852.0,479.0,-68.0,
35,0.555243968963623,0.015665054321289062,63.83635699500791,63.03535374788201,2.569187544628558e-38,-836.0,451.0,-57.0,-15.6875,144.375,44.75,-23.625,-39.25,15.125,97.0,-60.25,-97.125,0.71282958984375,0.15106201171875,-0.5130615234375,0.4537353515625,15.0,-30.0,3.0,-851.0,482.0,-60.0,
36,0.573232889175415,0.017988920211791992,55.58977349538111,62.80170011142476,2.569187544628558e-38,-916.0,401.0,-1.0,-15.6875,144.375,44.75,-12.0625,-36.75,17.875,96.8125,-60.0,-95.5,0.708740234375,0.14752197265625,-0.5159912109375,0.4578857421875,-107.0,-47.0,71.0,-849.0,487.0,-47.0,
37,0.5883290767669678,0.015096187591552734,66.24189014182382,62.88997341985086,2.569187544628558e-38,-964.0,465.0,1.0,-15.6875,144.375,44.75,-10.3125,-46.6875,35.375,96.4375,-59.5,-93.875,0.7052001953125,0.1414794921875,-0.51824951171875,0.4627685546875,-92.0,4.0,8.0,-845.0,496.0,-33.0,
38,0.6044340133666992,0.016104936599731445,62.09276229107759,62.868732003250265,2.569187544628558e-38,-913.0,624.0,53.0,-12.6875,143.6875,47.25,-9.625,-62.875,41.375,96.25,-59.125,-92.75,0.7025146484375,0.136962890625,-0.520263671875,0.46588134765625,-71.0,121.0,77.0,-841.0,502.0,-24.0,
39,0.6207070350646973,0.016273021697998047,61.45140211562692,62.831573990352744,2.569187544628558e-38,-974.0,662.0,41.0,-12.6875,143.6875,47.25,4.5625,-78.25,59.125,96.0,-58.125,-90.3125,0.697265625,0.12451171875,-0.5247802734375,0.47210693359375,-157.0,125.0,50.0,-833.0,517.0,-3.0,
40,0.6366159915924072,0.01590895652770996,62.85767380520629,62.832226221564916,2.569187544628558e-38,-891.0,619.0,27.0,-12.6875,143.6875,47.25,16.625,-83.5625,83.0625,95.5625,-56.625,-88.125,0.6925048828125,0.10760498046875,-0.528564453125,0.47906494140625,-26.0,76.0,-48.0,-818.0,539.0,17.0,
41,0.6522281169891357,0.015612125396728516,64.05277786261874,62.86144208144118,2.569187544628558e-38,-781.0,587.0,-5.0,-6.0,144.0,49.25,23.0625,-93.5625,83.0625,95.5625,-56.625,-88.125,0.6925048828125,0.10760498046875,-0.528564453125,0.47906494140625,-26.0,76.0,-48.0,-818.0,539.0,17.0,
42,0.6670851707458496,0.014857053756713867,67.30809596405359,62.960476175839666,2.569187544628558e-38,-709.0,598.0,27.0,-6.0,144.0,49.25,25.6875,-98.0625,90.625,95.1875,-53.9375,-84.9375,0.68414306640625,0.07769775390625,-0.53546142578125,0.48907470703125,4.0,-55.0,-63.0,-793.0,574.0,50.0,
43,0.6833951473236084,0.01630997657775879,61.31216652779605,62.92113745378732,2.569187544628558e-38,-776.0,519.0,-12.0,-6.0,144.0,49.25,12.9375,-112.3125,67.0,95.1875,-53.1875,-83.6875,0.67999267578125,0.068603515625,-0.53924560546875,0.4920654296875,8.0,-78.0,-33.0,-785.0,583.0,64.0,
44,0.6997110843658447,0.016315937042236328,61.28976824385539,62.88309701407353,2.569187544628558e-38,-721.0,531.0,38.0,-6.0,144.0,49.25,30.0625,-124.125,70.5625,95.4375,-52.375,-82.5,0.67596435546875,0.05804443359375,-0.5435791015625,0.49420166015625,55.0,-62.0,-38.0,-776.0,593.0,77.0,
45,0.713702917098999,0.013991832733154297,71.47026548069387,63.05144468641421,2.569187544628558e-38,-748.0,697.0,4.0,7.0625,144.0,46.75,46.6875,-133.75,68.625,95.8125,-51.5,-81.4375,0.6719970703125,0.04638671875,-0.54852294921875,0.49530029296875,50.0,4.0,-86.0,-768.0,602.0,90.0,
46,0.7290539741516113,0.015351057052612305,65.14209390094274,63.09546567320956,2.569187544628558e-38,-824.0,699.0,101.0,7.0625,144.0,46.75,21.875,-121.875,36.25,97.0,-49.6875,-78.1875,0.65850830078125,0.0211181640625,-0.5634765625,0.4984130859375,-126.0,76.0,70.0,-748.0,620.0,129.0,
47,0.7413802146911621,0.012326240539550781,81.12773694390715,63.395271506643674,2.569187544628558e-38,-874.0,697.0,199.0,7.0625,144.0,46.75,6.1875,-98.25,36.75,96.875,-49.0,-77.5,0.65496826171875,0.01458740234375,-0.56536865234375,0.50115966796875,-76.0,97.0,153.0,-740.0,627.0,138.0,
48,0.7585599422454834,0.01717972755432129,58.20814077744008,63.277794313671194,2.569187544628558e-38,-744.0,758.0,326.0,22.0625,144.375,41.375,10.75,-68.9375,82.25,96.5,-48.0625,-77.0625,0.6522216796875,0.00665283203125,-0.565673828125,0.50457763671875,-14.0,120.0,180.0,-730.0,638.0,146.0,
49,0.7737360000610352,0.015176057815551758,65.89326504642358,63.32909415632037,2.569187544628558e-38,-697.0,826.0,285.0,22.0625,144.375,41.375,26.5625,-69.875,97.375,95.8125,-45.875,-76.6875,0.6478271484375,-0.0137939453125,-0.56524658203125,0.510498046875,6.0,162.0,128.0,-704.0,663.0,157.0,
50,0.7893528938293457,0.015616893768310547,64.03322035968367,63.34302488895386,2.569187544628558e-38,-733.0,946.0,412.0,22.0625,144.375,41.375,43.8125,-88.1875,100.75,95.4375,-43.5625,-76.3125,0.6427001953125,-0.037109375,-0.56640625,0.51458740234375,-114.0,272.0,350.0,-676.0,689.0,167.0,
51,0.8052501678466797,0.015897274017333984,62.903866342721734,63.334355007188826,2.569187544628558e-38,-793.0,968.0,592.0,31.375,143.6875,39.0,60.1875,-103.6875,102.125,95.4375,-42.375,-76.1875,0.63995361328125,-0.050048828125,-0.56732177734375,0.51580810546875,-131.0,265.0,420.0,-661.0,703.0,172.0,
52,0.8231840133666992,0.01793384552001953,55.76048923158734,63.1693511482661,2.569187544628558e-38,-712.0,1164.0,514.0,31.375,143.6875,39.0,72.8125,-112.125,109.125,95.375,-39.75,-76.125,0.634033203125,-0.0791015625,-0.569091796875,0.517578125,-84.0,432.0,334.0,-627.0,731.0,179.0,
53,0.8414652347564697,0.018281221389770508,54.70094030804544,62.985371006252976,2.569187544628558e-38,-650.0,1244.0,511.0,31.375,143.6875,39.0,57.75,-117.4375,118.8125,95.0625,-37.0,-75.875,0.6256103515625,-0.1064453125,-0.57012939453125,0.52178955078125,-59.0,484.0,320.0,-590.0,759.0,190.0,
54,0.8569889068603516,0.015523672103881836,64.41774815315385,63.011317378463374,2.569187544628558e-38,-663.0,1475.0,735.0,47.5,142.1875,28.5625,20.0,-98.3125,106.625,94.75,-35.75,-75.5625,0.6207275390625,-0.11737060546875,-0.57037353515625,0.52496337890625,-90.0,705.0,537.0,-573.0,770.0,197.0,
55,0.8716418743133545,0.01465296745300293,68.24556208203843,63.09930904056997,2.569187544628558e-38,-664.0,1509.0,789.0,47.5,142.1875,28.5625,-13.375,-84.8125,89.0625,93.9375,-33.8125,-74.25,0.60845947265625,-0.130859375,-0.5721435546875,0.53411865234375,-98.0,751.0,624.0,-545.0,784.0,220.0,
56,0.8877170085906982,0.01607513427734375,62.20787850023731,63.083166660176104,2.569187544628558e-38,-670.0,1550.0,919.0,47.5,142.1875,28.5625,-55.3125,-81.1875,79.4375,93.4375,-32.8125,-73.375,0.59332275390625,-0.1414794921875,-0.5740966796875,0.5462646484375,-281.0,766.0,824.0,-516.0,794.0,250.0,
57,0.9041030406951904,0.016386032104492188,61.027587009661275,63.045911178631904,2.569187544628558e-38,-833.0,1567.0,1183.0,62.0625,133.5625,22.6875,-58.3125,-92.375,108.9375,92.125,-30.4375,-71.5625,0.58477783203125,-0.14837646484375,-0.5743408203125,0.55328369140625,-336.0,766.0,916.0,-497.0,801.0,266.0,
58,0.9193470478057861,0.015244007110595703,65.59954956363977,63.08825392807768,2.569187544628558e-38,-794.0,1604.0,1297.0,62.0625,133.5625,22.6875,-56.5,-102.9375,127.375,91.3125,-29.0,-70.6875,0.56549072265625,-0.166015625,-0.573486328125,0.56903076171875,-285.0,845.0,1211.0,-450.0,817.0,299.0,
59,0.9353499412536621,0.016002893447875977,62.48869951282013,63.077996157161785,2.567680868519716e-38,-730.0,1689.0,1528.0,62.0625,133.5625,22.6875,-61.125,-112.125,156.0625,89.375,-25.5625,-69.0,0.55487060546875,-0.1759033203125,-0.57208251953125,0.57781982421875,-307.0,862.0,1212.0,-423.0,826.0,316.0,
60,0.9518258571624756,0.016475915908813477,60.6946530641777,63.036740963171866,2.567680868519716e-38,-732.0,1864.0,1600.0,70.6875,122.0625,21.0625,-59.3125,-120.0,177.0625,87.125,-21.5625,-67.5,0.5321044921875,-0.19757080078125,-0.56744384765625,0.59649658203125,-371.0,1021.0,1251.0,-361.0,842.0,348.0,
61,0.9683001041412354,0.016474246978759766,60.700801759819385,62.996998285050886,2.567680868519716e-38,-909.0,2123.0,1765.0,70.6875,122.0625,21.0625,-50.6875,-129.625,172.4375,86.125,-19.5625,-66.8125,0.50823974609375,-0.22198486328125,-0.56402587890625,0.61181640625,-696.0,1502.0,1468.0,-295.0,855.0,377.0,
62,0.9831130504608154,0.014812946319580078,67.50851440527926,63.06497505138263,2.567680868519716e-38,-1167.0,2684.0,2040.0,70.6875,122.0625,21.0625,-42.1875,-145.8125,164.0625,85.3125,-17.5,-66.1875,0.49554443359375,-0.23516845703125,-0.56378173828125,0.61749267578125,-903.0,1823.0,1649.0,-263.0,860.0,390.0,
63,0.9975690841674805,0.014456033706665039,69.17526759355466,63.153520893820144,2.567680868519716e-38,-1232.0,2966.0,2352.0,70.6875,122.0625,21.0625,-46.8125,-196.5,138.125,84.5,-13.5,-64.8125,0.48089599609375,-0.2489013671875,-0.56561279296875,0.62200927734375,-1002.0,2103.0,1947.0,-229.0,862.0,405.0,
64,1.013828992843628,0.01625990867614746,61.50096042463966,63.12701693457222,2.567680868519716e-38,-556.0,3896.0,2038.0,82.0625,101.375,17.6875,-71.1875,-233.3125,132.4375,84.5625,-11.375,-63.75,0.46307373046875,-0.2630615234375,-0.5694580078125,0.62615966796875,-557.0,2709.0,1865.0,-194.0,862.0,424.0,
65,1.0349020957946777,0.021073102951049805,47.45385633633905,62.807873579662605,2.567680868519716e-38,-504.0,3598.0,1696.0,82.0625,101.375,17.6875,-277.1875,-314.375,233.6875,84.375,-6.0625,-60.375,0.3756103515625,-0.30206298828125,-0.5845947265625,0.652587890625,-460.0,2771.0,1171.0,-44.0,827.0,524.0,
66,1.0511188507080078,0.016216754913330078,61.66461818930283,62.790235334038606,2.567680868519716e-38,-883.0,3392.0,1080.0,86.5625,80.6875,6.875,-208.4375,-163.25,298.875,80.1875,4.5,-52.6875,0.31011962890625,-0.319091796875,-0.5770263671875,0.68487548828125,-961.0,2614.0,488.0,77.0,777.0,592.0,
67,1.0703811645507812,0.019262313842773438,51.9148430537677,62.5945244730821,2.567680868519716e-38,-9.0,8.0,466.0,86.5625,80.6875,6.875,-61.9375,3.5625,214.4375,78.125,6.125,-51.9375,0.3009033203125,-0.3214111328125,-0.5660400390625,0.69696044921875,-116.0,-767.0,-665.0,107.0,775.0,590.0,
68,1.0866382122039795,0.016257047653198242,61.51178377110006,62.57832573555338,2.567680868519716e-38,8.0,-24.0,-55.0,86.5625,80.6875,6.875,172.25,150.5625,58.6875,75.125,5.8125,-54.1875,0.32476806640625,-0.322265625,-0.54217529296875,0.70477294921875,-92.0,-815.0,-625.0,92.0,807.0,549.0,
69,1.1022629737854004,0.015624761581420898,64.00097657740139,62.598492048625786,2.567680868519716e-38,3.0,-8.0,-68.0,85.0625,52.5,0.5,163.75,155.625,55.1875,72.25,5.0,-57.1875,0.35577392578125,-0.3218994140625,-0.51751708984375,0.70849609375,-82.0,-829.0,-597.0,86.0,821.0,529.0,
70,1.1180081367492676,0.015745162963867188,63.511568746214415,62.61135111550507,2.567680868519716e-38,10.0,-10.0,-77.0,85.0625,52.5,0.5,156.0,154.8125,55.6875,70.8125,4.6875,-58.5625,0.37030029296875,-0.321044921875,-0.50518798828125,0.7103271484375,-69.0,-844.0,-587.0,80.0,834.0,509.0,
71,1.132714033126831,0.014705896377563477,67.99993515020833,62.68131048399403,2.567680868519716e-38,17.0,-11.0,-63.0,85.0625,52.5,0.5,141.9375,153.5625,56.6875,67.875,4.125,-61.125,0.39752197265625,-0.31982421875,-0.492919921875,0.71392822265625,-59.0,-857.0,-566.0,71.0,856.0,472.0,
72,1.1468679904937744,0.01415395736694336,70.6516187716875,62.77967525190149,2.567680868519716e-38,11.0,-10.0,-38.0,85.0625,52.5,0.5,135.75,152.9375,56.875,66.375,3.875,-62.3125,0.4102783203125,-0.31640625,-0.46832275390625,0.7156982421875,-55.0,-877.0,-492.0,67.0,866.0,454.0,
73,1.162841796875,0.015973806381225586,62.60248660427768,62.77724123451606,2.567680868519716e-38,11.0,-11.0,-22.0,70.5,44.25,1.0625,124.875,153.1875,57.6875,63.3125,3.5625,-64.5625,0.43450927734375,-0.31182861328125,-0.44366455078125,0.7191162109375,-50.0,-889.0,-462.0,64.0,875.0,436.0,
74,1.1784510612487793,0.015609264373779297,64.06451809989308,62.79429195946736,2.567680868519716e-38,15.0,-12.0,-24.0,70.5,44.25,1.0625,120.3125,153.9375,58.3125,61.75,3.4375,-65.625,0.44598388671875,-0.30908203125,-0.43121337890625,0.72088623046875,-44.0,-904.0,-427.0,59.0,891.0,403.0,
75,1.1933472156524658,0.014896154403686523,67.13142015717281,62.848430881026985,2.567680868519716e-38,27.0,-8.0,-26.0,70.5,44.25,1.0625,111.625,154.9375,59.0625,58.5625,3.3125,-67.625,0.46771240234375,-0.30279541015625,-0.40618896484375,0.7242431640625,-30.0,-913.0,-397.0,57.0,905.0,371.0,
76,1.2081851959228516,0.014837980270385742,67.39461717682975,62.90426356527958,2.567680868519716e-38,29.0,-2.0,-21.0,60.5625,38.875,-0.1875,108.25,155.25,59.3125,56.9375,3.3125,-68.625,0.47808837890625,-0.29931640625,-0.39361572265625,0.72589111328125,-27.0,-914.0,-377.0,57.0,911.0,356.0,
77,1.2240839004516602,0.015898704528808594,62.898206466318754,62.90418489417979,2.567680868519716e-38,20.0,-2.0,-29.0,60.5625,38.875,-0.1875,103.0625,155.1875,59.5625,53.5625,3.3125,-70.4375,0.4979248046875,-0.29180908203125,-0.3682861328125,0.7288818359375,-36.0,-924.0,-356.0,57.0,922.0,327.0,
78,1.240123987197876,0.01604008674621582,62.34380248822034,62.89693676214184,2.567680868519716e-38,19.0,-1.0,-16.0,60.5625,38.875,-0.1875,98.6875,155.75,60.25,50.1875,3.4375,-72.1875,0.51666259765625,-0.28375244140625,-0.34271240234375,0.73150634765625,-40.0,-933.0,-334.0,58.0,927.0,313.0,
79,1.2538120746612549,0.013688087463378906,73.056225179405,63.00784750485323,2.567680868519716e-38,16.0,1.0,-15.0,52.6875,33.6875,0.1875,96.1875,156.4375,60.75,48.4375,3.5625,-73.0,0.525634765625,-0.27947998046875,-0.32977294921875,0.73272705078125,-45.0,-935.0,-300.0,61.0,936.0,285.0,
80,1.268205165863037,0.014393091201782227,69.47777832993755,63.081275927115875,2.567680868519716e-38,17.0,0.0,-19.0,52.6875,33.6875,0.1875,94.1875,156.75,61.375,46.6875,3.6875,-73.8125,0.5343017578125,-0.27508544921875,-0.31671142578125,0.73382568359375,-46.0,-940.0,-291.0,64.0,939.0,272.0,
81,1.2863209247589111,0.018115758895874023,55.20055801955701,62.97028870550437,2.567680868519716e-38,16.0,1.0,-23.0,52.6875,33.6875,0.1875,90.625,156.6875,62.4375,43.0625,4.0625,-75.375,0.55084228515625,-0.26605224609375,-0.29046630859375,0.73577880859375,-53.0,-945.0,-270.0,70.0,946.0,246.0,
82,1.3018779754638672,0.015557050704956055,64.27953594580926,62.98593381671035,2.5644522768579117e-38,16.0,4.0,-16.0,46.6875,29.1875,-1.0,87.0,156.5,63.1875,39.375,4.5,-76.8125,0.56634521484375,-0.25665283203125,-0.26397705078125,0.73736572265625,-61.0,-947.0,-238.0,77.0,951.0,222.0,
83,1.3180899620056152,0.016211986541748047,61.682755375158095,62.96990523598753,2.5644522768579117e-38,20.0,5.0,-16.0,46.6875,29.1875,-1.0,85.3125,156.6875,63.5625,37.5,4.8125,-77.5,0.57373046875,-0.2518310546875,-0.2506103515625,0.73797607421875,-61.0,-948.0,-226.0,82.0,954.0,210.0,
84,1.332582950592041,0.014492988586425781,68.99888135816279,63.03547554970624,2.5644522768579117e-38,24.0,10.0,-20.0,46.6875,29.1875,-1.0,82.3125,156.4375,64.0,33.6875,5.375,-78.8125,0.587646484375,-0.24188232421875,-0.22381591796875,0.73895263671875,-68.0,-947.0,-209.0,92.0,957.0,188.0,
85,1.347661018371582,0.015078067779541016,66.32149520888018,63.07224060150376,2.5644522768579117e-38,25.0,9.0,-17.0,46.6875,29.1875,-1.0,80.75,156.125,64.0625,31.75,5.6875,-79.4375,0.59429931640625,-0.23681640625,-0.21038818359375,0.7392578125,-72.0,-949.0,-195.0,98.0,959.0,177.0,
86,1.3627879619598389,0.015126943588256836,66.10720759058742,63.105928728870296,2.5644522768579117e-38,26.0,11.0,-15.0,41.0625,25.875,-1.0,78.375,156.3125,64.1875,27.8125,6.4375,-80.625,0.6068115234375,-0.22637939453125,-0.1834716796875,0.739501953125,-83.0,-949.0,-173.0,109.0,961.0,157.0,
87,1.3781540393829346,0.015366077423095703,65.07841737781226,63.12792149051354,2.5644522768579117e-38,27.0,12.0,-22.0,41.0625,25.875,-1.0,77.0625,156.3125,64.1875,25.875,6.8125,-81.1875,0.61273193359375,-0.2210693359375,-0.16998291015625,0.73944091796875,-88.0,-949.0,-170.0,116.0,962.0,148.0,
88,1.3920080661773682,0.013854026794433594,72.18117987196256,63.2180244771564,2.5644522768579117e-38,28.0,14.0,-16.0,41.0625,25.875,-1.0,74.8125,156.1875,63.8125,21.875,7.5625,-82.25,0.62396240234375,-0.21026611328125,-0.1429443359375,0.7388916015625,-101.0,-948.0,-146.0,129.0,963.0,130.0,
89,1.409315824508667,0.017307758331298828,57.777557373887646,63.15121029101357,2.5644522768579117e-38,26.0,16.0,-12.0,39.1875,22.875,-1.0,73.375,156.0625,63.4375,17.8125,8.4375,-83.25,0.6343994140625,-0.19921875,-0.1158447265625,0.73785400390625,-117.0,-946.0,-126.0,144.0,963.0,113.0,
90,1.426180124282837,0.016864299774169922,59.29685865354709,63.105633340148415,2.5644522768579117e-38,28.0,14.0,-19.0,39.1875,22.875,-1.0,72.75,155.9375,63.3125,15.75,8.875,-83.6875,0.6392822265625,-0.19354248046875,-0.102294921875,0.73712158203125,-122.0,-948.0,-125.0,151.0,963.0,105.0,
91,1.4448809623718262,0.018700838088989258,53.47353927355712,62.98096685461209,2.5644522768579117e-38,27.0,14.0,-11.0,39.1875,22.875,-1.0,71.5,155.8125,62.875,11.6875,9.75,-84.5625,0.6485595703125,-0.18212890625,-0.07525634765625,0.7352294921875,-139.0,-947.0,-102.0,166.0,962.0,90.0,
92,1.4593579769134521,0.014477014541625977,69.07501523360946,63.04142058042562,2.5644522768579117e-38,27.0,16.0,-10.0,34.6875,19.875,0.1875,69.5625,156.1875,62.25,7.5,10.6875,-85.375,0.65704345703125,-0.17034912109375,-0.0482177734375,0.7327880859375,-155.0,-943.0,-87.0,182.0,960.0,77.0,
93,1.4739909172058105,0.014632940292358398,68.33896537678207,63.09401158067963,2.5644522768579117e-38,27.0,15.0,-17.0,34.6875,19.875,0.1875,69.25,156.25,62.125,5.375,11.1875,-85.75,0.66094970703125,-0.1644287109375,-0.03466796875,0.7313232421875,-163.0,-943.0,-87.0,190.0,959.0,70.0,
94,1.491067886352539,0.017076969146728516,58.55840058079468,63.04206593164814,2.5644522768579117e-38,27.0,18.0,-12.0,34.6875,19.875,0.1875,67.9375,157.125,61.4375,1.1875,12.1875,-86.4375,0.66827392578125,-0.1522216796875,-0.00762939453125,0.72808837890625,-180.0,-938.0,-71.0,207.0,956.0,59.0,
95,1.506403923034668,0.015336036682128906,65.20589515577389,63.06409492655955,2.5644522768579117e-38,26.0,17.0,-9.0,32.5,18.75,2.25,67.1875,156.9375,61.125,359.0625,12.6875,-86.75,0.67169189453125,-0.14605712890625,0.005859375,0.72625732421875,-189.0,-937.0,-63.0,215.0,955.0,53.0,
96,1.5222530364990234,0.01584911346435547,63.095011733557975,63.06441682046964,2.5644522768579117e-38,28.0,19.0,-17.0,32.5,18.75,2.25,66.125,156.75,60.375,354.8125,13.6875,-87.3125,0.6778564453125,-0.133544921875,0.03271484375,0.72222900390625,-204.0,-931.0,-61.0,232.0,951.0,44.0,
97,1.5383548736572266,0.016101837158203125,62.104714522624974,63.054371693441496,2.5644522768579117e-38,28.0,19.0,-11.0,32.5,18.75,2.25,64.9375,156.875,59.5625,350.5,14.75,-87.75,0.6806640625,-0.12725830078125,0.04608154296875,0.719970703125,-212.0,-931.0,-56.0,241.0,949.0,40.0,
98,1.554372787475586,0.016017913818359375,62.4301024053346,63.04793855736442,2.5644522768579117e-38,29.0,18.0,-9.0,31.0,18.375,4.75,64.6875,157.0625,59.0625,348.375,15.25,-88.0,0.68572998046875,-0.11444091796875,0.07275390625,0.715087890625,-229.0,-927.0,-42.0,258.0,945.0,32.0,
99,1.5691330432891846,0.014760255813598633,67.7495033032354,63.092164442906785,2.5644522768579117e-38,32.0,19.0,-16.0,31.0,18.375,4.75,63.5625,156.875,58.25,344.0625,16.25,-88.375,0.69012451171875,-0.10137939453125,0.09918212890625,0.70965576171875,-243.0,-921.0,-42.0,275.0,940.0,26.0,
100,1.5848388671875,0.01570582389831543,63.670648956356736,63.09789725025033,2.5644522768579117e-38,28.0,21.0,-13.0,31.0,18.375,4.75,63.5,156.375,57.9375,341.9375,16.8125,-88.5,0.6920166015625,-0.0948486328125,0.1123046875,0.70672607421875,-255.0,-917.0,-36.0,283.0,938.0,23.0,
101,1.6001980304718018,0.015359163284301758,65.1077133232952,63.117188045920294,2.5644522768579117e-38,30.0,19.0,-11.0,28.6875,18.0,6.0,62.4375,156.5,56.9375,337.625,17.8125,-88.75,0.6953125,-0.08160400390625,0.13836669921875,0.7005615234375,-270.0,-913.0,-30.0,300.0,933.0,19.0,
102,1.6164050102233887,0.016206979751586914,61.701810906630186,63.102996683921134,2.5644522768579117e-38,29.0,21.0,-11.0,28.6875,18.0,6.0,61.9375,156.8125,56.5,335.5,18.375,-88.875,0.6966552734375,-0.07489013671875,0.1513671875,0.697265625,-279.0,-909.0,-29.0,309.0,930.0,17.0,
103,1.6323509216308594,0.015945911407470703,62.712000239227294,63.09917716534513,2.5644522768579117e-38,32.0,23.0,-16.0,28.6875,18.0,6.0,61.8125,156.25,55.25,331.1875,19.375,-89.0625,0.69891357421875,-0.0614013671875,0.177001953125,0.690185546875,-293.0,-901.0,-31.0,325.0,924.0,15.0,
104,1.6481680870056152,0.01581716537475586,63.22245334780381,63.100360224148474,2.5644522768579117e-38,32.0,26.0,-12.0,26.1875,19.0625,9.0,61.9375,156.125,54.25,326.9375,20.375,-89.125,0.70062255859375,-0.0477294921875,0.202392578125,0.68255615234375,-309.0,-892.0,-25.0,342.0,918.0,14.0,
105,1.661257028579712,0.01308894157409668,76.40037159146797,63.20515019266436,2.5644522768579117e-38,34.0,25.0,-16.0,26.1875,19.0625,9.0,61.5625,155.25,53.625,324.8125,20.875,-89.1875,0.70123291015625,-0.0408935546875,0.21490478515625,0.67852783203125,-315.0,-890.0,-29.0,350.0,915.0,12.0,
106,1.677262783050537,0.016005754470825195,62.47752967988917,63.198206668135526,2.562873854267696e-38,32.0,25.0,-26.0,26.1875,19.0625,9.0,61.4375,154.5625,52.9375,322.75,21.375,-89.1875,0.70166015625,-0.0340576171875,0.227294921875,0.6744384765625,-325.0,-886.0,-38.0,357.0,912.0,12.0,
107,1.692439079284668,0.01517629623413086,65.89222986772238,63.22236428458328,2.562873854267696e-38,85.0,496.0,-315.0,26.1875,19.0625,9.0,61.5625,154.3125,51.5625,318.5625,22.3125,-89.125,0.7021484375,-0.020263671875,0.25177001953125,0.66571044921875,-288.0,-410.0,-328.0,373.0,906.0,12.0,
108,1.708733081817627,0.016294002532958984,61.37227473588715,63.20472234617088,2.562873854267696e-38,167.0,1948.0,-1048.0,23.1875,19.875,12.6875,-105.875,20.625,-79.9375,317.75,21.875,-87.9375,0.6953125,-0.00994873046875,0.25885009765625,0.67041015625,-198.0,1039.0,-1080.0,366.0,909.0,32.0,
109,1.724916934967041,0.016183853149414062,61.789982321744255,63.19144869551804,2.562873854267696e-38,234.0,1562.0,-973.0,23.1875,19.875,12.6875,-457.125,-132.1875,-300.4375,323.25,19.0625,-84.0625,0.67181396484375,-0.009765625,0.2333984375,0.70294189453125,-86.0,640.0,-1069.0,321.0,921.0,95.0,
110,1.7401201725006104,0.015203237533569336,65.77546379788919,63.21402494974031,2.562873854267696e-38,3919.0,3928.0,765.0,23.1875,19.875,12.6875,-1005.8125,-14.25,-775.4375,341.0,7.375,-67.8125,0.55950927734375,0.0147705078125,0.13671875,0.81732177734375,3793.0,3027.0,399.0,126.0,900.0,366.0,
111,1.7556140422821045,0.01549386978149414,64.54165512571939,63.225741721518844,2.562873854267696e-38,3919.0,3928.0,765.0,23.1875,19.875,12.6875,-1005.8125,-14.25,-775.4375,341.0,7.375,-67.8125,0.4586181640625,0.09393310546875,0.07769775390625,0.8802490234375,3113.0,915.0,-1774.0,-92.0,806.0,550.0,
112,1.771393060684204,0.01577901840209961,63.37529841950984,63.22707392606572,2.562873854267696e-38,1380.0,320.0,-638.0,20.5625,21.0,16.875,-1175.8125,886.4375,-1390.0625,5.75,-35.4375,-27.75,0.22021484375,0.30224609375,-0.04681396484375,0.92626953125,1949.0,-51.0,-1344.0,-569.0,372.0,706.0,
113,1.7883450984954834,0.016952037811279297,58.98995808838007,63.186909559606676,2.562873854267696e-38,1417.0,235.0,-556.0,20.5625,21.0,16.875,-1001.3125,1042.6875,-1374.6875,22.1875,-57.1875,20.0,-0.0115966796875,0.49560546875,-0.1671142578125,0.85223388671875,2241.0,417.0,-1055.0,-824.0,-181.0,498.0,
114,1.8069000244140625,0.0185549259185791,53.89404433022808,63.091481797377064,2.562873854267696e-38,1412.0,129.0,-474.0,11.5625,-1.0625,20.1875,-901.4375,1044.75,-1374.6875,32.4375,-57.625,55.5,-0.11639404296875,0.57879638671875,-0.2255859375,0.77496337890625,2240.0,562.0,-771.0,-828.0,-433.0,297.0,
115,1.8249878883361816,0.01808786392211914,55.285687923443966,63.01411682509523,2.562873854267696e-38,1450.0,58.0,-392.0,11.5625,-1.0625,20.1875,-687.6875,1210.25,-1338.3125,62.5,-35.8125,100.5625,-0.28936767578125,0.7005615234375,-0.3385009765625,0.55755615234375,2024.0,840.0,-246.0,-574.0,-781.0,-146.0,
116,1.8390250205993652,0.014037132263183594,71.2396222569468,63.07690145629117,2.562873854267696e-38,1471.0,14.0,-357.0,11.5625,-1.0625,20.1875,-473.375,1290.6875,-1315.0,114.5625,-3.75,116.5,-0.40533447265625,0.747314453125,-0.44305419921875,0.28436279296875,1571.0,810.0,160.0,-64.0,-875.0,-437.0,
117,1.855118989944458,0.016093969345092773,62.1350754781269,63.06873070363156,2.562873854267696e-38,1507.0,-64.0,-276.0,11.5625,-1.0625,20.1875,-473.375,1290.6875,-1315.0,114.5625,-3.75,116.5,-0.40533447265625,0.747314453125,-0.44305419921875,0.28436279296875,1571.0,810.0,160.0,-64.0,-875.0,-437.0,
118,1.8732399940490723,0.018121004104614258,55.18457996184461,62.99246245802118,2.562873854267696e-38,1519.0,-139.0,-207.0,14.5625,-27.5625,3.0625,-159.25,1367.6875,-1278.3125,210.125,47.5,117.0625,-0.4722900390625,0.6563720703125,-0.568115234375,-0.15301513671875,765.0,383.0,160.0,723.0,-589.0,-301.0,
119,1.8915557861328125,0.018315792083740234,54.59769336908698,62.91117654176582,2.562873854267696e-38,1451.0,-241.0,-114.0,14.5625,-27.5625,3.0625,51.375,1380.5625,-1255.8125,247.6875,75.6875,66.5,-0.457763671875,0.4912109375,-0.6153564453125,-0.412841796875,454.0,-51.0,-164.0,950.0,-222.0,96.0,
120,1.9088819026947021,0.01732611656188965,57.7163380165403,62.864025181757015,2.562873854267696e-38,1355.0,-293.0,-33.0,37.0,-17.5,16.0,156.3125,1373.875,-1244.5,259.8125,71.0625,3.4375,-0.43804931640625,0.38238525390625,-0.62396240234375,-0.5220947265625,427.0,-274.0,-350.0,927.0,-19.0,317.0,
121,1.9253339767456055,0.01645207405090332,60.782609955800304,62.84623938571242,2.562873854267696e-38,1279.0,-318.0,50.0,37.0,-17.5,16.0,357.125,1343.375,-1226.1875,277.3125,39.625,-28.875,-0.38299560546875,0.1273193359375,-0.6043701171875,-0.68695068359375,627.0,-719.0,-583.0,625.0,365.0,661.0,
122,1.9434170722961426,0.01808309555053711,55.30026632914063,62.77602566074882,2.562873854267696e-38,1217.0,-390.0,86.0,37.0,-17.5,16.0,551.5,1304.5,-1222.5625,291.125,5.5,-40.9375,-0.3165283203125,-0.15478515625,-0.5291748046875,-0.77191162109375,996.0,-1080.0,-656.0,94.0,639.0,737.0,
123,1.9593429565429688,0.015925884246826172,62.79086200185634,62.776146253139416,2.562873854267696e-38,1015.0,-471.0,89.0,5.1875,4.875,40.25,644.0,1269.125,-1219.0625,298.0625,-11.375,-47.1875,-0.2823486328125,-0.29522705078125,-0.4693603515625,-0.7828369140625,1208.0,-1176.0,-563.0,-193.0,705.0,653.0,
124,1.975417137145996,0.016074180603027344,62.21156926727974,62.77155222979905,2.562873854267696e-38,941.0,-495.0,105.0,5.1875,4.875,40.25,821.9375,1170.25,-1204.8125,315.125,-43.375,-65.75,-0.21722412109375,-0.5511474609375,-0.30743408203125,-0.74462890625,1531.0,-1175.0,-205.0,-673.0,649.0,292.0,
125,1.9934091567993164,0.017992019653320312,55.58019718011237,62.70664483186388,2.562873854267696e-38,713.0,-566.0,80.0,5.1875,4.875,40.25,997.5625,1040.25,-1177.125,342.4375,-67.0625,-115.375,-0.1610107421875,-0.7467041015625,-0.09820556640625,-0.6378173828125,1532.0,-914.0,249.0,-903.0,345.0,-163.0,
126,2.009273052215576,0.015863895416259766,63.036219904415525,62.7092469393659,2.562873854267696e-38,561.0,-561.0,87.0,-46.375,-8.875,9.75,1080.3125,963.0625,-1158.375,3.8125,-67.5625,-161.0625,-0.13653564453125,-0.81341552734375,0.01898193359375,-0.56512451171875,1468.0,-682.0,441.0,-906.0,121.0,-353.0,
127,2.0248069763183594,0.015533924102783203,64.37523406084047,62.72202806754448,2.562873854267696e-38,497.0,-538.0,90.0,-46.375,-8.875,9.75,1225.25,787.0,-1118.625,67.3125,-47.875,144.375,-0.09100341796875,-0.87408447265625,0.2645263671875,-0.3970947265625,1147.0,-80.0,637.0,-727.0,-382.0,-534.0,
128,2.0403289794921875,0.015522003173828125,64.42467436716638,62.73498111655386,2.562873854267696e-38,399.0,-423.0,155.0,-46.375,-8.875,9.75,1333.875,599.75,-1081.6875,133.0,-24.0,115.875,-0.04205322265625,-0.835205078125,0.50286865234375,-0.218505859375,781.0,413.0,597.0,-399.0,-805.0,-390.0,
129,2.0560190677642822,0.015690088272094727,63.73450439909435,62.742608773699146,2.5632325866745634e-38,259.0,-878.0,137.0,-32.1875,-54.875,10.6875,1373.625,517.375,-1061.625,155.8125,-12.75,103.0625,-0.04205322265625,-0.835205078125,0.50286865234375,-0.20867919921875,781.0,413.0,597.0,-399.0,-805.0,-390.0,
130,2.072403907775879,0.01638484001159668,61.032027123379365,62.72908457286064,2.5632325866745634e-38,1630.0,-3916.0,775.0,-32.1875,-54.875,10.6875,1525.25,370.25,-643.8125,181.75,3.1875,75.1875,0.025634765625,-0.61004638671875,0.7918701171875,0.01251220703125,-2249.0,-2969.0,70.0,54.0,-946.0,249.0,
131,2.090467929840088,0.018064022064208984,55.35865691735079,62.66539568967267,2.5632325866745634e-38,101.0,-3908.0,3534.0,-32.1875,-54.875,10.6875,415.9375,-319.25,609.75,172.375,-2.8125,62.0625,0.00531005859375,-0.515869140625,0.85479736328125,-0.0565185546875,1167.0,-1417.0,2390.0,-48.0,-865.0,458.0,
132,2.1062731742858887,0.01580524444580078,63.27013817655222,62.669933611414535,2.5632325866745634e-38,-134.0,-1931.0,1996.0,-4.0625,-23.0625,77.0,448.375,-323.625,221.25,168.625,-3.0625,57.5,0.016845703125,-0.4814453125,0.87200927734375,-0.08673095703125,-81.0,-1105.0,1471.0,-53.0,-826.0,525.0,
133,2.1221649646759033,0.01589179039001465,62.92557197509564,62.671847954247866,2.5632325866745634e-38,457.0,-1291.0,2140.0,-4.0625,-23.0625,77.0,199.25,-54.375,-115.8125,169.4375,-0.1875,52.0,0.03826904296875,-0.4368896484375,0.8948974609375,-0.08258056640625,1495.0,929.0,2231.0,-3.0,-773.0,603.0,
134,2.1404621601104736,0.018297195434570312,54.65318461378088,62.60330245365514,2.5632325866745634e-38,588.0,535.0,1055.0,-4.0625,-23.0625,77.0,-253.375,-6.5,98.5,168.25,-0.9375,55.25,0.03778076171875,-0.462646484375,0.881103515625,-0.09039306640625,-66.0,706.0,-229.0,-16.0,-806.0,558.0,
135,2.155967950820923,0.015505790710449219,64.4920351805154,62.61688628005642,2.5632325866745634e-38,-206.0,-562.0,270.0,7.375,27.25,89.5625,-312.5625,58.375,69.3125,167.8125,-1.8125,58.3125,0.0330810546875,-0.48638916015625,0.86822509765625,-0.09228515625,-175.0,271.0,-243.0,-31.0,-834.0,514.0,
136,2.1715359687805176,0.015568017959594727,64.23425272217713,62.62848138609205,2.5632325866745634e-38,6.0,-1473.0,865.0,7.375,27.25,89.5625,-327.3125,13.125,66.25,166.875,-3.0625,64.625,0.02886962890625,-0.53424072265625,0.83935546875,-0.09625244140625,201.0,-1149.0,254.0,-53.0,-884.0,419.0,
137,2.188579797744751,0.0170438289642334,58.6722620896107,62.597671851478,2.5632325866745634e-38,427.0,-2670.0,335.0,7.375,27.25,89.5625,-238.5625,60.6875,79.6875,165.6875,-4.875,69.9375,0.01947021484375,-0.573486328125,0.8126220703125,-0.1019287109375,376.0,-1810.0,-53.0,-83.0,-917.0,334.0,
138,2.204543113708496,0.015963315963745117,62.64362631618251,62.598004612327834,2.5632325866745634e-38,198.0,-1528.0,1037.0,3.375,7.0625,82.25,-238.5625,60.6875,79.6875,165.6875,-4.875,69.9375,0.01947021484375,-0.573486328125,0.8126220703125,-0.1019287109375,376.0,-1810.0,-53.0,-83.0,-917.0,334.0,
139,2.2194550037384033,0.014911890029907227,67.06058038212487,62.627987395946896,2.5632325866745634e-38,213.0,-1019.0,1046.0,3.375,7.0625,98.25,-31.1875,32.0,105.875,163.3125,-7.9375,71.5,-0.0008544921875,-0.5859375,0.80181884765625,-0.11737060546875,371.0,156.0,489.0,-136.0,-921.0,307.0,
140,2.2368321418762207,0.017377138137817383,57.546875214378815,62.58851407713148,2.5632325866745634e-38,274.0,-705.0,534.0,3.375,7.0625,98.25,-58.6875,-0.1875,98.125,162.3125,-8.875,72.0625,-0.005126953125,-0.58984375,0.79791259765625,-0.1240234375,426.0,216.0,236.0,-151.0,-921.0,298.0,
141,2.2530508041381836,0.01621866226196289,61.65736630112016,62.581811178436354,2.5632325866745634e-38,373.0,-887.0,403.0,3.375,7.0625,98.25,-114.25,-22.3125,80.125,161.25,-9.5,73.0625,-0.00640869140625,-0.59722900390625,0.79132080078125,-0.13055419921875,536.0,37.0,122.0,-162.0,-925.0,280.0,
142,2.269078016281128,0.016027212142944336,62.39388304598128,62.580483782892934,2.5632325866745634e-38,482.0,-1155.0,284.0,-3.75,-8.5625,102.875,-177.75,-3.0,35.1875,159.3125,-10.75,77.875,-0.0076904296875,-0.6300048828125,0.76397705078125,-0.13922119140625,448.0,-246.0,73.0,-183.0,-941.0,202.0,
143,2.2844300270080566,0.015352010726928711,65.13804724262708,62.59767132692118,2.5632325866745634e-38,265.0,-1188.0,276.0,-3.75,-8.5625,102.875,-156.6875,33.4375,44.9375,158.9375,-11.5625,79.1875,-0.0142822265625,-0.6390380859375,0.75616455078125,-0.14019775390625,348.0,-284.0,225.0,-196.0,-943.0,179.0,
144,2.2992379665374756,0.014807939529418945,67.53134006343686,62.629445971117114,2.5632325866745634e-38,-38.0,-1297.0,586.0,-3.75,-8.5625,102.875,-103.875,88.0,85.0625,158.6875,-12.5,80.375,-0.0233154296875,-0.64654541015625,0.74932861328125,-0.1409912109375,174.0,-353.0,426.0,-213.0,-943.0,159.0,
145,2.315477132797241,0.016239166259765625,61.579516091144,62.622082484067086,2.5632325866745634e-38,-77.0,-931.0,763.0,-5.5625,-22.0,105.375,-82.1875,79.0,85.75,158.3125,-13.4375,81.3125,-0.031982421875,-0.65252685546875,0.74365234375,-0.14227294921875,90.0,-309.0,619.0,-228.0,-942.0,143.0,
146,2.329684019088745,0.014206886291503906,70.38840034906357,62.66944306769458,2.5632325866745634e-38,60.0,-1048.0,525.0,-5.5625,-22.0,105.375,-98.0625,2.8125,40.3125,156.8125,-14.625,84.125,-0.0364990234375,-0.67034912109375,0.72601318359375,-0.14892578125,409.0,-182.0,375.0,-247.0,-943.0,96.0,
147,2.3447911739349365,0.015107154846191406,66.19380089640805,62.6921500021302,2.5632325866745634e-38,162.0,-1177.0,396.0,-5.5625,-22.0,105.375,-108.0625,-19.5625,-1.375,156.375,-14.5625,85.125,-0.03387451171875,-0.6767578125,0.71990966796875,-0.1502685546875,409.0,-231.0,316.0,-247.0,-945.0,80.0,
148,2.3609108924865723,0.016119718551635742,62.035822573249916,62.68766875996857,2.5632325866745634e-38,130.0,-1239.0,386.0,-19.75,-37.875,107.5,-98.1875,-10.75,16.625,155.9375,-14.75,86.0625,-0.03289794921875,-0.6824951171875,0.714111328125,-0.15216064453125,380.0,-293.0,321.0,-249.0,-946.0,64.0,
149,2.3738410472869873,0.012930154800415039,77.33859458263419,62.76747138157753,2.5632325866745634e-38,134.0,-1303.0,361.0,-19.75,-37.875,107.5,-84.3125,6.4375,36.9375,155.0,-15.5625,87.625,-0.03778076171875,-0.69189453125,0.70391845703125,-0.15594482421875,394.0,-468.0,312.0,-263.0,-943.0,38.0,
150,2.391106128692627,0.01726508140563965,57.9203756127874,62.73247272466937,2.5632325866745634e-38,-40.0,-1484.0,423.0,-19.75,-37.875,107.5,-55.6875,36.3125,46.9375,154.5625,-16.375,88.6875,-0.045654296875,-0.6981201171875,0.69708251953125,-0.15704345703125,136.0,-1120.0,585.0,-277.0,-940.0,20.0,
151,2.4068539142608643,0.015747785568237305,63.50099165796127,62.7375010611608,2.5632325866745634e-38,-101.0,-2403.0,715.0,-22.375,-48.875,108.25,-17.75,17.0625,22.0625,154.5,-16.625,88.9375,-0.0477294921875,-0.69927978515625,0.69561767578125,-0.15740966796875,179.0,-1464.0,698.0,-280.0,-939.0,17.0,
152,2.4251561164855957,0.018302202224731445,54.63823356998632,62.67637739555923,2.5632325866745634e-38,-50.0,-639.0,726.0,-22.375,-48.875,108.25,17.0625,-26.1875,-15.25,154.4375,-16.4375,88.6875,-0.04144287109375,-0.694580078125,0.70025634765625,-0.15966796875,224.0,301.0,183.0,-274.0,-940.0,31.0,
153,2.441592216491699,0.016436100006103516,60.841683831848904,62.66402676358637,2.5692592911099316e-38,-166.0,-845.0,-56.0,-22.375,-48.875,108.25,19.4375,-61.4375,-29.5,153.875,-15.625,87.75,-0.03143310546875,-0.693115234375,0.7015380859375,-0.16259765625,216.0,-97.0,-3.0,-264.0,-943.0,36.0,
154,2.458000898361206,0.016408681869506836,60.943347427458846,62.6525401608578,2.5692592911099316e-38,21.0,-1016.0,242.0,-24.1875,-49.75,108.1875,-19.0625,-31.8125,-24.25,153.75,-15.375,87.875,-0.02783203125,-0.69390869140625,0.7008056640625,-0.16302490234375,282.0,-71.0,207.0,-260.0,-944.0,34.0,
155,2.473687171936035,0.0156862735748291,63.75000379979633,62.65949945428589,2.5692592911099316e-38,-90.0,-956.0,189.0,-24.1875,-49.75,108.1875,-5.0625,-11.875,-13.75,153.8125,-15.1875,87.875,-0.02606201171875,-0.694091796875,0.70086669921875,-0.16241455078125,110.0,33.0,86.0,-256.0,-945.0,34.0,
156,2.490654945373535,0.0169677734375,58.935251798561154,62.634127738077325,2.5692592911099316e-38,-156.0,-890.0,116.0,-24.1875,-49.75,108.1875,-0.0625,8.6875,-2.9375,154.0,-15.125,87.875,-0.0263671875,-0.6944580078125,0.70068359375,-0.161376953125,107.0,45.0,106.0,-256.0,-946.0,33.0,
157,2.5063061714172363,0.015651226043701172,63.89275812692319,62.64198755542365,2.5692592911099316e-38,-130.0,-925.0,128.0,-18.875,-50.6875,109.5,-10.625,-5.0,-4.0625,154.0,-15.0625,88.0625,-0.02569580078125,-0.69500732421875,0.70013427734375,-0.16143798828125,125.0,20.0,96.0,-255.0,-946.0,31.0,
158,2.524806022644043,0.01849985122680664,54.05448874913009,62.57906491942627,2.5692592911099316e-38,-79.0,-952.0,56.0,-18.875,-50.6875,109.5,-16.0625,-12.375,-5.875,153.875,-15.0,88.1875,-0.022705078125,-0.69677734375,0.69830322265625,-0.1624755859375,173.0,-5.0,29.0,-253.0,-947.0,27.0,
159,2.5404770374298096,0.0156710147857666,63.81207686105068,62.58667079347415,2.5692592911099316e-38,-38.0,-993.0,78.0,-18.875,-50.6875,109.5,-18.375,-13.0625,-5.9375,153.6875,-14.875,88.4375,-0.020751953125,-0.6982421875,0.69671630859375,-0.1630859375,192.0,-32.0,86.0,-251.0,-947.0,23.0,
160,2.5559418201446533,0.01546478271484375,64.66304884065121,62.59923396493619,2.5692592911099316e-38,-71.0,-977.0,110.0,-18.75,-51.0,107.375,-4.3125,4.125,3.1875,153.625,-14.875,88.625,-0.0211181640625,-0.69854736328125,0.6964111328125,-0.1630859375,180.0,-30.0,87.0,-252.0,-947.0,22.0,
161,2.5715131759643555,0.015571355819702148,64.22048353263615,62.609051162890744,2.5692592911099316e-38,-112.0,-933.0,142.0,-18.75,-51.0,107.375,-0.4375,10.125,4.5625,153.6875,-14.9375,88.625,-0.02288818359375,-0.69879150390625,0.6962890625,-0.16229248046875,112.0,45.0,110.0,-253.0,-947.0,21.0,
162,2.5881400108337402,0.016626834869384766,60.14373799076544,62.59321339722016,2.5692592911099316e-38,-153.0,-890.0,131.0,-18.75,-51.0,107.375,-2.3125,7.1875,3.0,153.75,-15.0,88.625,-0.0234375,-0.69903564453125,0.69610595703125,-0.16204833984375,100.0,56.0,110.0,-254.0,-946.0,21.0,
163,2.6038379669189453,0.015697956085205078,63.70256067555663,62.59990140357071,2.5692592911099316e-38,-170.0,-927.0,99.0,-18.0,-51.6875,107.375,-14.9375,-7.125,-3.8125,153.6875,-14.9375,88.875,-0.02252197265625,-0.7003173828125,0.69476318359375,-0.16229248046875,83.0,19.0,81.0,-253.0,-947.0,17.0,
164,2.620783805847168,0.016945838928222656,59.01153694636727,62.57669924322011,2.5692592911099316e-38,-144.0,-930.0,96.0,-18.0,-51.6875,107.375,-19.0,-13.375,-8.25,153.5625,-14.875,89.0625,-0.02099609375,-0.7012939453125,0.6937255859375,-0.16265869140625,108.0,16.0,81.0,-252.0,-947.0,15.0,
165,2.6366331577301025,0.01584935188293457,63.094062608120105,62.579809222322666,2.5692592911099316e-38,-83.0,-938.0,90.0,-18.0,-51.6875,107.375,-22.375,-19.4375,-12.625,153.375,-14.625,89.375,-0.01904296875,-0.70233154296875,0.692626953125,-0.16363525390625,164.0,9.0,80.0,-248.0,-948.0,9.0,
166,2.6523678302764893,0.01573467254638672,63.553912358324745,62.58558790569246,2.5692592911099316e-38,-83.0,-939.0,129.0,-18.375,-52.75,108.0625,-21.0625,-17.4375,-11.5625,153.25,-14.5625,89.5625,-0.01483154296875,-0.70440673828125,0.6904296875,-0.16400146484375,165.0,43.0,101.0,-246.0,-949.0,6.0,
167,2.6687440872192383,0.016376256942749023,61.06401502467716,62.57625105373428,2.5692592911099316e-38,-90.0,-957.0,133.0,-18.375,-52.75,108.0625,-21.375,-16.125,-6.625,153.0,-14.375,89.875,-0.01153564453125,-0.70648193359375,0.6881103515625,-0.1651611328125,153.0,-7.0,132.0,-244.0,-949.0,1.0,
168,2.685166120529175,0.016422033309936523,60.8937992711857,62.56596145600544,2.5692592911099316e-38,-65.0,-986.0,65.0,-18.375,-52.75,108.0625,-35.5,-33.4375,-15.0625,152.375,-14.0625,90.5,-0.00347900390625,-0.71038818359375,0.6834716796875,-0.16790771484375,173.0,-35.0,75.0,-238.0,-951.0,-9.0,
169,2.7083358764648438,0.023169755935668945,43.15971228943929,62.39994140630502,2.5692592911099316e-38,-54.0,-1009.0,65.0,-16.5,-53.75,106.375,-39.1875,-34.3125,-21.125,152.125,-13.875,90.8125,0.0003662109375,-0.712158203125,0.681396484375,-0.16876220703125,180.0,-57.0,79.0,-235.0,-951.0,-14.0,
170,2.721464157104492,0.013128280639648438,76.17143687345634,62.46637478439983,2.5692592911099316e-38,-48.0,-964.0,52.0,-16.5,-53.75,106.375,-36.6875,-31.5,-24.1875,152.0,-13.625,91.125,0.004150390625,-0.7138671875,0.67950439453125,-0.1693115234375,183.0,-11.0,71.0,-231.0,-952.0,-18.0,
171,2.7377967834472656,0.016332626342773438,61.22714002102067,62.45898199379404,2.5692592911099316e-38,-43.0,-942.0,18.0,-16.5,-53.75,106.375,-27.6875,-21.6875,-18.9375,151.8125,-13.25,91.5625,0.01025390625,-0.716552734375,0.67645263671875,-0.1697998046875,181.0,11.0,45.0,-225.0,-954.0,-26.0,
172,2.754317045211792,0.016520261764526367,60.53172850730975,62.44742241965617,2.5692592911099316e-38,-98.0,-945.0,12.0,-12.75,-57.5625,103.875,-22.625,-15.3125,-13.6875,151.625,-12.9375,91.9375,0.01458740234375,-0.71868896484375,0.67401123046875,-0.17010498046875,122.0,9.0,45.0,-220.0,-954.0,-32.0,
173,2.769706964492798,0.01538991928100586,64.97759876065066,62.46148138334937,2.5692592911099316e-38,-113.0,-934.0,12.0,-12.75,-57.5625,103.875,-22.875,-15.25,-13.75,151.5625,-12.8125,92.125,0.0166015625,-0.71978759765625,0.67279052734375,-0.17022705078125,104.0,20.0,48.0,-218.0,-955.0,-36.0,
174,2.7860522270202637,0.01634526252746582,61.17980658430211,62.45396203002854,2.5692592911099316e-38,-66.0,-935.0,34.0,-12.75,-57.5625,103.875,-26.125,-25.1875,-13.75,151.3125,-12.5625,92.5,0.02154541015625,-0.721923828125,0.67010498046875,-0.1712646484375,147.0,20.0,76.0,-214.0,-956.0,-42.0,
175,2.8025858402252197,0.016533613204956055,60.48284713109435,62.44233360785722,2.5692592911099316e-38,-85.0,-909.0,35.0,-10.875,-62.0625,102.1875,-36.4375,-26.875,-18.875,150.9375,-12.25,93.0625,0.02777099609375,-0.724853515625,0.6663818359375,-0.1724853515625,123.0,47.0,86.0,-208.0,-956.0,-51.0,
176,2.8193888664245605,0.01680302619934082,59.51308937667608,62.42487586439127,2.568972305184438e-38,-82.0,-913.0,35.0,-10.875,-62.0625,102.1875,-40.8125,-25.5,-19.0625,151.0,-11.875,93.1875,0.03216552734375,-0.7257080078125,0.6654052734375,-0.17181396484375,120.0,44.0,89.0,-202.0,-957.0,-54.0,
177,2.8350977897644043,0.01570892333984375,63.65808644973288,62.431708930473484,2.568972305184438e-38,-12.0,-1022.0,-18.0,-10.875,-62.0625,102.1875,-47.6875,-23.4375,-18.8125,150.9375,-11.3125,93.875,0.0399169921875,-0.7291259765625,0.66143798828125,-0.171142578125,180.0,-62.0,46.0,-193.0,-959.0,-65.0,
178,2.8505349159240723,0.015437126159667969,64.77889664545623,62.4444201702742,2.568972305184438e-38,32.0,-1017.0,-39.0,-10.875,-62.0625,102.1875,-47.5625,-21.1875,-21.0,150.8125,-11.125,94.25,0.04302978515625,-0.73138427734375,0.65875244140625,-0.171142578125,222.0,-58.0,32.0,-189.0,-959.0,-72.0,
179,2.8660290241241455,0.015494108200073242,64.54066197854955,62.455752713356475,2.568972305184438e-38,20.0,-958.0,-39.0,-5.5625,-65.25,100.875,-37.1875,-6.4375,-23.9375,150.9375,-10.6875,95.0,0.0484619140625,-0.7353515625,0.65435791015625,-0.16943359375,202.0,1.0,44.0,-182.0,-959.0,-84.0,
180,2.8831071853637695,0.017078161239624023,58.55431307674052,62.432642433059215,2.568972305184438e-38,-4.0,-925.0,-46.0,-5.5625,-65.25,100.875,-27.3125,6.25,-14.5625,151.25,-10.375,95.5625,0.05096435546875,-0.73858642578125,0.65118408203125,-0.1668701171875,172.0,34.0,48.0,-176.0,-960.0,-94.0,
181,2.898386001586914,0.015278816223144531,65.45009674801823,62.448548916845276,2.568972305184438e-38,4.0,-927.0,-36.0,-5.5625,-65.25,100.875,-26.125,8.125,-12.5625,151.375,-10.1875,95.875,0.0516357421875,-0.7401123046875,0.6497802734375,-0.16552734375,178.0,32.0,62.0,-174.0,-959.0,-98.0,
182,2.9151320457458496,0.016746044158935547,59.715595546570235,62.43284940234482,2.568972305184438e-38,2.0,-963.0,-5.0,-3.375,-69.375,99.0,-29.5625,8.625,-11.4375,151.6875,-10.0,96.4375,0.052978515625,-0.7432861328125,0.64666748046875,-0.16290283203125,172.0,-3.0,102.0,-170.0,-959.0,-108.0,
183,2.929572820663452,0.014440774917602539,69.24836137297957,62.46644517904713,2.568972305184438e-38,-3.0,-975.0,10.0,-3.375,-69.375,99.0,-32.5,8.4375,-13.625,151.875,-9.8125,96.75,0.0538330078125,-0.7451171875,0.64483642578125,-0.1614990234375,164.0,-16.0,124.0,-167.0,-959.0,-113.0,
184,2.945802927017212,0.016230106353759766,61.613890765931195,62.46174797114149,2.568972305184438e-38,27.0,-991.0,-25.0,-3.375,-69.375,99.0,-31.5625,7.625,-15.4375,152.1875,-9.5,97.375,0.0557861328125,-0.74871826171875,0.6412353515625,-0.158447265625,189.0,-32.0,99.0,-162.0,-958.0,-125.0,
185,2.962252140045166,0.0164492130279541,60.79318191700607,62.452482521349204,2.568972305184438e-38,94.0,-978.0,-142.0,-4.5,-71.6875,98.0625,-28.375,7.3125,-9.75,152.4375,-9.25,97.9375,0.0572509765625,-0.75189208984375,0.637939453125,-0.15618896484375,252.0,-19.0,-8.0,-158.0,-958.0,-134.0,
186,2.9780428409576416,0.015790700912475586,63.32841116697619,62.457127023796765,2.568972305184438e-38,81.0,-994.0,-154.0,-4.5,-71.6875,98.0625,-27.3125,13.125,-6.1875,152.625,-9.1875,98.25,0.05731201171875,-0.7535400390625,0.6363525390625,-0.1549072265625,238.0,-36.0,-15.0,-157.0,-957.0,-139.0,
187,2.992867946624756,0.014825105667114258,67.45314485132114,62.481874688421044,2.568972305184438e-38,-15.0,-928.0,-139.0,-4.5,-71.6875,98.0625,-12.8125,26.25,6.625,153.0,-9.1875,98.6875,0.054931640625,-0.75604248046875,0.63427734375,-0.15203857421875,141.0,28.0,7.0,-157.0,-956.0,-146.0,
188,3.008782148361206,0.015914201736450195,62.836956358896764,62.48375280423609,2.568972305184438e-38,-75.0,-908.0,-91.0,-4.5,-75.375,95.5625,-5.875,27.5,16.0,153.125,-9.3125,98.75,0.05255126953125,-0.75677490234375,0.6337890625,-0.151123046875,83.0,47.0,56.0,-159.0,-956.0,-148.0,
189,3.022188186645508,0.013406038284301758,74.59325259207883,62.53746898858123,2.568972305184438e-38,-118.0,-937.0,-70.0,-4.5,-75.375,95.5625,-14.4375,22.625,9.625,153.375,-9.5,99.0625,0.0484619140625,-0.75872802734375,0.6322021484375,-0.14935302734375,43.0,17.0,82.0,-162.0,-954.0,-152.0,
190,3.041348934173584,0.019160747528076172,52.190030609959436,62.47227927880893,2.568972305184438e-38,-111.0,-936.0,-71.0,-4.5,-75.375,95.5625,-26.0,-1.0625,-4.3125,153.4375,-9.4375,99.5,0.04864501953125,-0.76123046875,0.62939453125,-0.1483154296875,50.0,16.0,89.0,-161.0,-953.0,-160.0,
191,3.056551933288574,0.015202999114990234,65.77649531098078,62.488714135637544,2.568972305184438e-38,-87.0,-964.0,-103.0,-6.375,-76.1875,94.375,-38.5625,-14.75,-20.75,153.4375,-9.25,99.875,0.05126953125,-0.76300048828125,0.62713623046875,-0.14801025390625,70.0,-11.0,62.0,-158.0,-953.0,-166.0,
192,3.0727617740631104,0.016209840774536133,61.69092059009546,62.48450550923073,2.568972305184438e-38,-12.0,-896.0,-177.0,-6.375,-76.1875,94.375,-42.3125,-13.5625,-23.0,153.375,-8.875,100.625,0.05657958984375,-0.7667236328125,0.622314453125,-0.14715576171875,140.0,55.0,0.0,-152.0,-952.0,-178.0,
193,3.0881600379943848,0.015398263931274414,64.94238600294186,62.49676105689926,2.568972305184438e-38,-3.0,-950.0,-180.0,-6.375,-76.1875,94.375,-52.5625,-4.0,-22.5,153.4375,-8.6875,101.0625,0.05889892578125,-0.76934814453125,0.619140625,-0.14599609375,145.0,0.0,6.0,-148.0,-951.0,-187.0,
194,3.104344129562378,0.016184091567993164,61.789072052562574,62.493071612955596,2.568972305184438e-38,24.0,-1010.0,-176.0,-5.6875,-78.0,92.6875,-42.4375,1.1875,-14.375,153.625,-8.375,102.0,0.062255859375,-0.77398681640625,0.613525390625,-0.14373779296875,167.0,-61.0,25.0,-143.0,-948.0,-201.0,
195,3.1203949451446533,0.01605081558227539,62.3021300614955,62.49208943996681,2.568972305184438e-38,16.0,-950.0,-185.0,-5.6875,-78.0,92.6875,-33.5,3.75,-8.875,153.75,-8.125,102.6875,0.064453125,-0.77783203125,0.60888671875,-0.14178466796875,156.0,-31.0,26.0,-140.0,-947.0,-208.0,
196,3.1367580890655518,0.016363143920898438,61.112950227299216,62.484895052391145,2.568972305184438e-38,13.0,-929.0,-178.0,-5.6875,-78.0,92.6875,-23.5625,4.9375,-0.6875,153.75,-8.125,102.9375,0.06451416015625,-0.77911376953125,0.60736083984375,-0.14129638671875,152.0,16.0,39.0,-139.0,-945.0,-218.0,
197,3.153480052947998,0.01672196388244629,59.80158832000228,62.470666277351775,2.568972305184438e-38,17.0,-931.0,-185.0,-5.6875,-78.0,92.6875,-21.25,5.75,-2.4375,153.875,-8.0625,103.375,0.06475830078125,-0.78143310546875,0.6046142578125,-0.14007568359375,178.0,45.0,62.0,-137.0,-944.0,-225.0,
198,3.1695549488067627,0.01607489585876465,62.208801150942556,62.46933818722428,2.568972305184438e-38,48.0,-935.0,-193.0,-5.375,-84.0,89.75,-21.875,7.0,-2.1875,153.9375,-8.0,103.625,0.0648193359375,-0.78265380859375,0.60321044921875,-0.139404296875,179.0,42.0,56.0,-137.0,-943.0,-228.0,
199,3.1849820613861084,0.015427112579345703,64.82094396192007,62.48072867116713,2.568972305184438e-38,54.0,-933.0,-187.0,-5.375,-84.0,89.75,-24.125,10.9375,-5.5,154.1875,-7.875,104.0625,0.06500244140625,-0.78521728515625,0.600341796875,-0.1373291015625,189.0,8.0,49.0,-134.0,-942.0,-236.0,
200,3.197706937789917,0.012724876403808594,78.5862249868845,62.544818487409366,2.56796785444521e-38,61.0,-945.0,-181.0,-5.375,-84.0,89.75,-22.5625,10.5,-3.75,154.3125,-7.8125,104.3125,0.06500244140625,-0.78643798828125,0.59893798828125,-0.13629150390625,195.0,-3.0,58.0,-133.0,-941.0,-240.0,
201,3.213792085647583,0.016085147857666016,62.16915186908962,62.5429382621366,2.56796785444521e-38,66.0,-972.0,-177.0,-4.5625,-85.375,88.5625,-16.625,10.375,-0.0625,154.5625,-7.75,104.6875,0.06451416015625,-0.78857421875,0.59661865234375,-0.13458251953125,198.0,-33.0,69.0,-132.0,-939.0,-247.0,
202,3.2289741039276123,0.015182018280029297,65.86739533276798,62.55856922305267,2.56796785444521e-38,67.0,-948.0,-175.0,-4.5625,-85.375,88.5625,-9.4375,11.75,1.1875,154.75,-7.75,104.8125,0.06396484375,-0.78936767578125,0.59576416015625,-0.1337890625,201.0,-15.0,61.0,-132.0,-939.0,-249.0,
203,3.242064952850342,0.013090848922729492,76.38923998761543,62.61441487207945,2.56796785444521e-38,55.0,-924.0,-172.0,-4.5625,-85.375,88.5625,-8.5625,11.8125,1.625,154.875,-7.6875,105.0625,0.06280517578125,-0.79052734375,0.59466552734375,-0.13226318359375,187.0,13.0,80.0,-131.0,-938.0,-252.0,
204,3.2585620880126953,0.016497135162353516,60.61658525305663,62.60430045217086,2.56796785444521e-38,55.0,-924.0,-172.0,-4.5625,-85.375,88.5625,-10.25,9.8125,3.0625,154.9375,-7.6875,105.1875,0.062255859375,-0.79119873046875,0.593994140625,-0.1317138671875,157.0,31.0,72.0,-131.0,-937.0,-254.0,
205,3.2740249633789062,0.015462875366210938,64.67102504008881,62.61406137491174,2.56796785444521e-38,34.0,-923.0,-192.0,-5.6875,-87.5625,85.6875,-20.375,4.4375,2.0625,155.0,-7.75,105.5,0.06170654296875,-0.7930908203125,0.5916748046875,-0.13104248046875,167.0,13.0,67.0,-132.0,-936.0,-260.0,
206,3.2920899391174316,0.01806497573852539,55.355734459548636,62.57423211688622,2.56796785444521e-38,41.0,-974.0,-180.0,-5.6875,-87.5625,85.6875,-19.3125,1.1875,-3.375,155.0,-7.6875,105.9375,0.06231689453125,-0.795166015625,0.58892822265625,-0.13037109375,172.0,-40.0,86.0,-131.0,-934.0,-267.0,
207,3.308681011199951,0.01659107208251953,60.273380467896764,62.562694711064886,2.56796785444521e-38,24.0,-953.0,-179.0,-7.1875,-87.5625,85.6875,-16.25,2.6875,-2.0,155.0,-7.625,106.0625,0.0625,-0.79595947265625,0.587890625,-0.1300048828125,155.0,-19.0,89.0,-130.0,-933.0,-269.0,
208,3.3238160610198975,0.015135049819946289,66.07180101132623,62.57867348296529,2.56796785444521e-38,-4.0,-959.0,-174.0,-7.1875,-88.0,84.5,-9.375,3.9375,0.5,155.125,-7.625,106.3125,0.06243896484375,-0.79718017578125,0.58642578125,-0.12933349609375,126.0,-26.0,99.0,-130.0,-932.0,-273.0,
209,3.3388350009918213,0.015018939971923828,66.58259516779376,62.596684154178114,2.56796785444521e-38,-12.0,-908.0,-176.0,-7.1875,-88.0,84.5,-8.125,3.625,2.1875,155.125,-7.625,106.375,0.06219482421875,-0.797607421875,0.58587646484375,-0.129150390625,118.0,24.0,98.0,-130.0,-932.0,-274.0,
210,3.3547489643096924,0.015913963317871094,62.83789776472703,62.59782840210572,2.56796785444521e-38,-33.0,-890.0,-190.0,-7.1875,-88.0,84.5,-11.5625,1.125,1.875,155.0625,-7.625,106.5,0.0621337890625,-0.7982177734375,0.5850830078125,-0.12908935546875,103.0,37.0,87.0,-130.0,-930.0,-279.0,
211,3.3705129623413086,0.01576399803161621,63.435684145253255,62.6017470804889,2.56796785444521e-38,0.0,-928.0,-190.0,-7.1875,-89.0625,83.1875,-22.8125,-10.3125,-9.875,154.875,-7.5625,107.0625,0.06500244140625,-0.8009033203125,0.58099365234375,-0.12939453125,174.0,-11.0,38.0,-129.0,-929.0,-282.0,
212,3.3867220878601074,0.016209125518798828,61.69364280881358,62.597400820080786,2.56796785444521e-38,45.0,-940.0,-247.0,-7.1875,-89.0625,83.1875,-22.625,-10.0625,-10.8125,154.8125,-7.5,107.25,0.06646728515625,-0.80181884765625,0.57952880859375,-0.12945556640625,186.0,9.0,43.0,-128.0,-928.0,-289.0,
213,3.4030678272247314,0.016345739364624023,61.17802184979361,62.59058320730142,2.56796785444521e-38,56.0,-903.0,-245.0,-7.1875,-89.0625,83.1875,-21.9375,-7.5625,-8.4375,154.75,-7.4375,107.4375,0.067626953125,-0.80279541015625,0.578125,-0.12939453125,183.0,23.0,46.0,-126.0,-926.0,-295.0,
214,3.419834852218628,0.016767024993896484,59.640872508034015,62.57612114256537,2.56796785444521e-38,42.0,-934.0,-261.0,-8.375,-91.0,83.5625,-12.8125,1.625,0.5625,154.6875,-7.375,107.625,0.068359375,-0.8037109375,0.5767822265625,-0.1292724609375,164.0,-6.0,36.0,-126.0,-925.0,-297.0,
215,3.4360849857330322,0.016250133514404297,61.53795592593679,62.57121139107486,2.56796785444521e-38,43.0,-937.0,-268.0,-8.375,-91.0,83.5625,-9.75,2.6875,2.0625,154.6875,-7.375,108.0,0.06854248046875,-0.80560302734375,0.57421875,-0.1287841796875,165.0,-8.0,32.0,-126.0,-924.0,-301.0,
216,3.451601982116699,0.015516996383666992,64.44546194858873,62.57963725804148,2.56796785444521e-38,35.0,-928.0,-266.0,-8.375,-91.0,83.5625,-7.3125,4.0625,3.375,154.6875,-7.375,108.125,0.06817626953125,-0.8060302734375,0.57366943359375,-0.128662109375,162.0,-4.0,36.0,-126.0,-924.0,-302.0,
217,3.466610908508301,0.015008926391601562,66.62701741009023,62.597160664153144,2.56796785444521e-38,33.0,-935.0,-276.0,-6.0625,-92.5,80.375,-4.75,5.375,3.4375,154.75,-7.375,108.1875,0.0677490234375,-0.80633544921875,0.5733642578125,-0.12841796875,160.0,-11.0,27.0,-126.0,-923.0,-303.0,
218,3.481387138366699,0.014776229858398438,67.67626177875306,62.618718153326434,2.56796785444521e-38,-7.0,-924.0,-263.0,-6.0625,-92.5,80.375,3.75,8.0,2.0625,155.3125,-7.125,108.125,0.0675048828125,-0.80609130859375,0.57440185546875,-0.12548828125,119.0,-5.0,52.0,-122.0,-924.0,-302.0,
219,3.495284080505371,0.013896942138671875,71.95827614603348,62.65585141461107,2.56796785444521e-38,-2.0,-930.0,-250.0,-6.0625,-92.5,80.375,5.4375,8.4375,0.875,155.4375,-7.125,108.0625,0.0670166015625,-0.805908203125,0.57476806640625,-0.125,118.0,1.0,60.0,-122.0,-924.0,-302.0,
220,3.5088369846343994,0.01355290412902832,73.78492391591169,62.698837524628615,2.56796785444521e-38,-22.0,-906.0,-228.0,-5.0,-92.875,80.6875,4.75,6.8125,-0.1875,155.5625,-7.125,108.0,0.066650390625,-0.80572509765625,0.57513427734375,-0.12457275390625,99.0,18.0,72.0,-121.0,-925.0,-301.0,
221,3.5248351097106934,0.015998125076293945,62.5073247790644,62.69796830812291,2.56796785444521e-38,-46.0,-879.0,-237.0,-5.0,-92.875,80.6875,-6.1875,0.5625,-0.875,155.5625,-7.0625,108.0625,0.066650390625,-0.8060302734375,0.5748291015625,-0.12420654296875,88.0,45.0,39.0,-121.0,-924.0,-302.0,
222,3.5403499603271484,0.015514850616455078,64.4543750192089,62.70566539684284,2.56796785444521e-38,28.0,-899.0,-241.0,-5.0,-92.875,80.6875,-12.0625,-2.875,-3.5,155.5,-7.0625,108.3125,0.06695556640625,-0.8065185546875,0.5740966796875,-0.12420654296875,149.0,24.0,62.0,-121.0,-924.0,-303.0,
223,3.5564539432525635,0.01610398292541504,62.096439410763196,62.702906760000054,2.56796785444521e-38,47.0,-948.0,-226.0,-5.0,-92.875,80.6875,-12.0625,-2.875,-3.5,155.5,-7.0625,108.3125,0.06744384765625,-0.80706787109375,0.57330322265625,-0.12420654296875,168.0,-24.0,79.0,-120.0,-923.0,-305.0,
224,3.572554111480713,0.016100168228149414,62.111152245701845,62.70023994322621,2.56818309388933e-38,89.0,-970.0,-237.0,-8.375,-91.6875,81.5625,-2.4375,2.8125,-4.5625,155.625,-6.9375,108.5,0.06854248046875,-0.8079833984375,0.57208251953125,-0.123291015625,206.0,-18.0,51.0,-118.0,-923.0,-308.0,
225,3.5886480808258057,0.016093969345092773,62.1350754781269,62.69770535655975,2.56818309388933e-38,75.0,-893.0,-257.0,-8.375,-91.6875,81.5625,-0.75,5.3125,-0.25,155.6875,-6.875,108.5,0.0682373046875,-0.80810546875,0.572021484375,-0.1229248046875,193.0,29.0,46.0,-118.0,-923.0,-309.0,
226,3.607309103012085,0.018661022186279297,53.587632553979816,62.6505779089713,2.56818309388933e-38,47.0,-931.0,-247.0,-7.1875,-93.5625,81.1875,-2.25,5.125,1.3125,155.75,-6.875,108.5,0.06793212890625,-0.80816650390625,0.572021484375,-0.12261962890625,173.0,0.0,55.0,-118.0,-923.0,-309.0,
227,3.6235530376434326,0.016243934631347656,61.56143955850408,62.645695438096524,2.56818309388933e-38,46.0,-918.0,-247.0,-7.1875,-93.5625,81.1875,-3.5625,2.375,1.0625,156.25,-6.5625,108.5,0.06878662109375,-0.80810546875,0.572509765625,-0.12005615234375,152.0,2.0,59.0,-113.0,-923.0,-309.0,
228,3.6386098861694336,0.015056848526000977,66.41496049277153,62.66129294779338,2.56818309388933e-38,32.0,-922.0,-249.0,-7.1875,-93.5625,81.1875,-4.8125,3.125,1.5,156.3125,-6.5625,108.5625,0.068603515625,-0.80841064453125,0.57220458984375,-0.119873046875,145.0,0.0,70.0,-113.0,-923.0,-310.0,
229,3.654662847518921,0.016052961349487305,62.29380226047437,62.65967875955059,2.56818309388933e-38,25.0,-936.0,-240.0,-7.1875,-93.5625,81.1875,-5.0,4.1875,2.125,156.3125,-6.625,108.625,0.06829833984375,-0.8087158203125,0.57183837890625,-0.11968994140625,138.0,-13.0,71.0,-113.0,-923.0,-311.0,
230,3.6706430912017822,0.015980243682861328,62.57726852266285,62.659319984361964,2.56818309388933e-38,26.0,-930.0,-265.0,-8.0,-93.5625,79.5625,-1.4375,3.1875,3.5625,157.0625,-6.1875,108.5,0.06951904296875,-0.8082275390625,0.5731201171875,-0.11614990234375,116.0,6.0,30.0,-105.0,-924.0,-311.0,
231,3.686724901199341,0.016081809997558594,62.18205538753484,62.65723811528564,2.56818309388933e-38,10.0,-918.0,-279.0,-8.0,-93.5625,79.5625,-1.6875,-0.6875,3.8125,157.3125,-6.0,108.4375,0.07037353515625,-0.80792236328125,0.57366943359375,-0.114990234375,104.0,25.0,39.0,-103.0,-924.0,-309.0,
232,3.7034270763397217,0.01670217514038086,59.87244125959974,62.64467889274519,2.56818309388933e-38,14.0,-945.0,-251.0,-8.0,-93.5625,79.5625,-4.0,-2.6875,1.75,157.5625,-5.8125,108.375,0.0714111328125,-0.8076171875,0.57421875,-0.1138916015625,114.0,-20.0,56.0,-99.0,-925.0,-308.0,
233,3.716642141342163,0.013215065002441406,75.67121310528975,62.690996641355,2.56818309388933e-38,21.0,-956.0,-256.0,-7.5625,-93.1875,80.375,-4.125,-3.1875,-0.625,157.75,-5.625,108.375,0.07269287109375,-0.8072509765625,0.5748291015625,-0.11273193359375,117.0,-29.0,51.0,-96.0,-926.0,-307.0,
234,3.731998920440674,0.015356779098510742,65.11782149011815,62.7009827678003,2.56818309388933e-38,22.0,-907.0,-258.0,-7.5625,-93.1875,80.375,0.6875,-1.625,0.9375,158.5,-5.0625,108.125,0.0760498046875,-0.80572509765625,0.5771484375,-0.109375,105.0,22.0,49.0,-86.0,-928.0,-303.0,
235,3.746904134750366,0.014905214309692383,67.09061535262408,62.71844476097242,2.56818309388933e-38,23.0,-916.0,-255.0,-7.5625,-93.1875,80.375,0.3125,-0.8125,0.4375,158.75,-4.875,108.0,0.07708740234375,-0.80523681640625,0.577880859375,-0.10821533203125,107.0,12.0,47.0,-83.0,-929.0,-302.0,
236,3.7637479305267334,0.016843795776367188,59.36904087872268,62.70345526751894,2.56818309388933e-38,31.0,-918.0,-250.0,-6.875,-93.1875,79.5625,-0.0625,-1.5625,0.5625,159.0,-4.6875,107.9375,0.078125,-0.80474853515625,0.57861328125,-0.1070556640625,111.0,10.0,51.0,-80.0,-929.0,-301.0,
237,3.7790110111236572,0.015263080596923828,65.5175731825424,62.714821232957995,2.56818309388933e-38,30.0,-904.0,-264.0,-6.875,-93.1875,79.5625,-1.0,-2.875,0.6875,159.375,-4.3125,107.8125,0.08038330078125,-0.80401611328125,0.5797119140625,-0.10516357421875,104.0,26.0,35.0,-74.0,-930.0,-299.0,
238,3.794520139694214,0.01550912857055664,64.47815526518063,62.72202840888849,2.56818309388933e-38,45.0,-919.0,-260.0,-6.875,-93.1875,79.5625,-3.4375,-7.4375,-0.5,159.8125,-3.9375,107.75,0.083251953125,-0.803466796875,0.58038330078125,-0.10333251953125,121.0,6.0,35.0,-67.0,-931.0,-299.0,
239,3.8108019828796387,0.016281843185424805,61.418107803370866,62.716457342503865,2.56818309388933e-38,26.0,-909.0,-263.0,-8.0,-94.375,79.5625,-3.5,-5.0625,-1.8125,160.0,-3.75,107.75,0.0845947265625,-0.80322265625,0.5806884765625,-0.102294921875,91.0,22.0,35.0,-64.0,-931.0,-298.0,
240,3.8291079998016357,0.01830601692199707,54.626847787864186,62.67778292292436,2.56818309388933e-38,31.0,-929.0,-271.0,-8.0,-94.375,79.5625,-2.1875,-2.5,-0.375,160.1875,-3.625,107.6875,0.0855712890625,-0.80291748046875,0.58111572265625,-0.10137939453125,84.0,11.0,40.0,-59.0,-932.0,-297.0,
241,3.8462719917297363,0.017163991928100586,58.261504910336015,62.658075278659126,2.56818309388933e-38,9.0,-904.0,-267.0,-8.0,-94.375,79.5625,1.875,0.125,0.75,160.8125,-3.1875,107.5625,0.0877685546875,-0.8018798828125,0.582763671875,-0.0985107421875,63.0,28.0,27.0,-54.0,-933.0,-295.0,
242,3.862816095352173,0.016544103622436523,60.444495683878316,62.64859471078104,2.56818309388933e-38,0.0,-909.0,-253.0,-8.0,-94.0,79.5625,1.375,-1.0625,0.8125,160.875,-3.0625,107.5,0.0882568359375,-0.801513671875,0.583251953125,-0.09796142578125,53.0,24.0,41.0,-52.0,-933.0,-294.0,
243,3.8774831295013428,0.014667034149169922,68.18010988653727,62.66951831489995,2.56818309388933e-38,14.0,-923.0,-250.0,-8.0,-94.0,79.5625,0.4375,-2.4375,0.3125,161.0,-3.0,107.4375,0.0888671875,-0.80120849609375,0.5836181640625,-0.0975341796875,56.0,17.0,43.0,-51.0,-934.0,-293.0,
244,3.8931970596313477,0.015713930130004883,63.637803638349844,62.67342655989386,2.56818309388933e-38,31.0,-933.0,-263.0,-8.0,-94.0,79.5625,0.8125,-2.9375,-0.75,161.3125,-2.6875,107.25,0.09088134765625,-0.80010986328125,0.5850830078125,-0.0960693359375,68.0,7.0,38.0,-46.0,-935.0,-291.0,
245,3.909756898880005,0.016559839248657227,60.38705961962077,62.66374261534856,2.56818309388933e-38,24.0,-929.0,-247.0,-6.5,-93.5625,78.6875,2.9375,-1.4375,-0.1875,161.4375,-2.5625,107.1875,0.09149169921875,-0.79962158203125,0.58575439453125,-0.095458984375,69.0,6.0,42.0,-44.0,-935.0,-289.0,
246,3.926079034805298,0.01632213592529297,61.26649138182881,62.65793373469356,2.56818309388933e-38,23.0,-921.0,-262.0,-6.5,-93.5625,78.6875,4.25,-0.125,-0.8125,161.625,-2.4375,107.0625,0.092041015625,-0.79913330078125,0.58648681640625,-0.0947265625,66.0,14.0,26.0,-42.0,-936.0,-288.0,
247,3.94161319732666,0.015534162521362305,64.3742460287008,62.66469783679536,2.56818309388933e-38,11.0,-912.0,-245.0,-6.5,-93.5625,78.6875,3.9375,0.9375,-1.0,161.875,-2.25,106.9375,0.09320068359375,-0.7978515625,0.58831787109375,-0.0928955078125,53.0,24.0,41.0,-37.0,-937.0,-284.0,
248,3.957353115081787,0.015739917755126953,63.53273349692508,62.66815034899269,2.5682548403707036e-38,16.0,-863.0,-255.0,-6.875,-93.5625,80.0,-1.25,1.75,-2.0,162.0625,-2.1875,106.875,0.09326171875,-0.79791259765625,0.5882568359375,-0.09271240234375,54.0,73.0,29.0,-37.0,-937.0,-285.0,
249,3.9734678268432617,0.01611471176147461,62.0550969078266,62.665664062471876,2.5682548403707036e-38,1.0,-880.0,-255.0,-6.875,-93.5625,80.0,-4.375,0.1875,-1.9375,162.0625,-2.125,106.9375,0.09368896484375,-0.79852294921875,0.58740234375,-0.09246826171875,30.0,41.0,36.0,-36.0,-936.0,-287.0,
250,3.9888410568237305,0.01537322998046875,65.04813895781638,62.674846262004785,2.5682548403707036e-38,28.0,-949.0,-255.0,-6.875,-93.5625,80.0,-9.9375,-1.0625,-1.6875,162.0625,-2.125,107.0,0.09405517578125,-0.7989501953125,0.58673095703125,-0.0924072265625,64.0,-13.0,33.0,-36.0,-936.0,-288.0,
251,4.004963159561157,0.016122102737426758,62.02664852634537,62.672236922025334,2.5682548403707036e-38,46.0,-983.0,-244.0,-6.875,-93.5625,80.0,-7.25,-3.125,-3.9375,162.0625,-2.0625,107.1875,0.09454345703125,-0.79925537109375,0.58624267578125,-0.09234619140625,82.0,-47.0,44.0,-36.0,-936.0,-289.0,
252,4.023214817047119,0.018251657485961914,54.78954449858268,62.636476414888044,2.5682548403707036e-38,54.0,-921.0,-255.0,-6.5,-94.375,80.0,-0.5625,-2.0625,-3.0,162.0625,-2.0,107.1875,0.09552001953125,-0.79931640625,0.58612060546875,-0.0921630859375,81.0,29.0,28.0,-34.0,-936.0,-290.0,
253,4.039478063583374,0.016263246536254883,61.48833800008796,62.631853922129395,2.5682548403707036e-38,39.0,-897.0,-264.0,-6.5,-94.375,80.0,-1.0625,1.125,-3.4375,162.0625,-2.0,107.1875,0.095703125,-0.79931640625,0.5860595703125,-0.0919189453125,73.0,38.0,25.0,-34.0,-936.0,-290.0,
254,4.055721998214722,0.016243934631347656,61.56143955850408,62.627566709899654,2.5682548403707036e-38,29.0,-908.0,-251.0,-6.5,-94.6875,80.0,-3.5625,1.25,-3.125,162.25,-1.875,107.25,0.0960693359375,-0.799560546875,0.58575439453125,-0.09136962890625,62.0,27.0,40.0,-33.0,-935.0,-290.0,
255,4.071676015853882,0.015954017639160156,62.680136290274376,62.62777269289273,2.5682548403707036e-38,19.0,-916.0,-252.0,-6.5,-94.6875,80.0,-5.0625,0.125,-2.8125,162.25,-1.875,107.3125,0.09649658203125,-0.800048828125,0.58502197265625,-0.091064453125,56.0,9.0,37.0,-32.0,-935.0,-293.0,
256,4.087416172027588,0.015740156173706055,63.531771156788196,62.63125388404226,2.5682548403707036e-38,32.0,-939.0,-257.0,-6.5,-94.6875,80.0,-5.625,-0.875,-2.4375,162.4375,-1.75,107.375,0.09649658203125,-0.800048828125,0.58502197265625,-0.09039306640625,56.0,9.0,37.0,-32.0,-935.0,-293.0,
257,4.103904962539673,0.01648879051208496,60.647262106161165,62.623282543306594,2.5682548403707036e-38,47.0,-929.0,-278.0,-6.5,-94.6875,80.0,-4.25,-0.75,-2.5625,162.5625,-1.625,107.375,0.097900390625,-0.7999267578125,0.585205078125,-0.089599609375,75.0,6.0,15.0,-28.0,-935.0,-293.0,
258,4.122477054595947,0.018572092056274414,53.844230201419826,62.58373220352275,2.5682548403707036e-38,50.0,-926.0,-283.0,-6.875,-94.0,78.6875,-1.75,1.0,-2.0625,162.875,-1.375,107.375,0.0992431640625,-0.7998046875,0.58538818359375,-0.087890625,74.0,8.0,10.0,-23.0,-935.0,-293.0,
259,4.138885974884033,0.016408920288085938,60.942461931884225,62.57722526585354,2.5682548403707036e-38,23.0,-913.0,-258.0,-6.875,-94.0,78.6875,0.9375,3.0625,1.125,162.9375,-1.375,107.375,0.09893798828125,-0.7998046875,0.58551025390625,-0.0875244140625,47.0,22.0,34.0,-23.0,-935.0,-293.0,
260,4.154814958572388,0.015928983688354492,62.77864423523073,62.57799747821672,2.5682548403707036e-38,3.0,-896.0,-242.0,-5.375,-95.5,78.6875,0.0625,1.8125,1.875,163.0,-1.375,107.375,0.0986328125,-0.79974365234375,0.58563232421875,-0.08746337890625,33.0,30.0,47.0,-23.0,-935.0,-292.0,
261,4.170860052108765,0.016045093536376953,62.32434842045826,62.57702170276363,2.5682548403707036e-38,0.0,-899.0,-236.0,-5.375,-95.5,78.6875,-2.4375,-0.6875,0.5625,163.0,-1.375,107.375,0.0985107421875,-0.7999267578125,0.58544921875,-0.08746337890625,24.0,35.0,57.0,-23.0,-935.0,-294.0,
262,4.187163829803467,0.01630377769470215,61.335478115906,62.57218743989234,2.5682548403707036e-38,28.0,-931.0,-276.0,-5.375,-95.5,78.6875,-6.75,-4.0625,-4.5625,162.9375,-1.3125,107.5,0.099365234375,-0.8004150390625,0.58465576171875,-0.08746337890625,51.0,3.0,18.0,-23.0,-934.0,-295.0,
263,4.203394174575806,0.016230344772338867,61.61298567756151,62.56848372459411,2.5682548403707036e-38,43.0,-931.0,-288.0,-5.375,-95.5,78.6875,-6.0,-3.8125,-5.5625,163.0625,-1.25,107.5625,0.10028076171875,-0.80047607421875,0.58441162109375,-0.08697509765625,65.0,3.0,7.0,-21.0,-934.0,-295.0,
264,4.219903945922852,0.0165097713470459,60.57019076638699,62.56066568886458,2.5682548403707036e-38,46.0,-927.0,-285.0,-6.0625,-95.0625,78.25,-1.75,-0.125,-3.125,163.0625,-1.1875,107.5625,0.10101318359375,-0.8006591796875,0.5841064453125,-0.08673095703125,67.0,7.0,11.0,-20.0,-934.0,-296.0,
265,4.235760927200317,0.01585698127746582,63.063705663895114,62.56254886773208,2.5682548403707036e-38,25.0,-918.0,-285.0,-6.0625,-95.0625,78.25,1.25,2.9375,-0.1875,163.1875,-1.125,107.5625,0.10089111328125,-0.8006591796875,0.584228515625,-0.0863037109375,45.0,16.0,11.0,-19.0,-934.0,-296.0,
266,4.251321792602539,0.01556086540222168,64.26377801951982,62.56877577765345,2.5682548403707036e-38,18.0,-900.0,-273.0,-6.0625,-95.0625,78.25,0.3125,3.5625,1.375,163.25,-1.0625,107.5625,0.100830078125,-0.80059814453125,0.5843505859375,-0.0858154296875,37.0,33.0,22.0,-19.0,-934.0,-296.0,
267,4.267355918884277,0.01603412628173828,62.36697793374175,62.56801754417723,2.5682548403707036e-38,26.0,-932.0,-248.0,-5.0,-95.5,78.25,-1.25,0.375,2.3125,163.375,-1.0625,107.5,0.100830078125,-0.8004150390625,0.584716796875,-0.0853271484375,44.0,2.0,47.0,-18.0,-934.0,-295.0,
268,4.281702995300293,0.014347076416015625,69.70061153948419,62.59191735021408,2.5682548403707036e-38,38.0,-946.0,-242.0,-5.0,-95.5,78.25,-2.5625,-2.1875,-0.1875,163.3125,-1.0625,107.5625,0.10101318359375,-0.800537109375,0.58453369140625,-0.08544921875,56.0,-11.0,53.0,-18.0,-934.0,-296.0,
269,4.296750783920288,0.015047788619995117,66.45494731838707,62.60544619126563,2.5682548403707036e-38,52.0,-927.0,-265.0,-5.0,-95.5,78.25,-3.3125,-3.375,-2.9375,163.3125,-1.0,107.625,0.10174560546875,-0.80078125,0.583984375,-0.0855712890625,70.0,6.0,32.0,-17.0,-934.0,-297.0,
270,4.312381982803345,0.01563119888305664,63.97461944419023,62.610409067816725,2.5682548403707036e-38,57.0,-918.0,-279.0,-7.1875,-96.1875,79.0625,-2.25,-1.0,-1.6875,163.3125,-1.0,107.625,0.1019287109375,-0.8009033203125,0.5838623046875,-0.08551025390625,75.0,15.0,17.0,-17.0,-934.0,-297.0,
271,4.327971935272217,0.01558995246887207,64.14387741057364,62.61593283251151,2.5685418262961973e-38,26.0,-916.0,-274.0,-7.1875,-96.1875,79.0625,-0.875,3.25,2.75,163.3125,-1.0,107.6875,0.10150146484375,-0.801025390625,0.583740234375,-0.0853271484375,44.0,17.0,23.0,-17.0,-934.0,-297.0,
272,4.34369421005249,0.015722274780273438,63.60402765983258,62.61950930397402,2.5685418262961973e-38,33.0,-935.0,-263.0,-7.1875,-96.1875,79.0625,-2.0625,3.75,3.25,163.4375,-1.0,107.625,0.10137939453125,-0.80096435546875,0.583984375,-0.0848388671875,41.0,4.0,33.0,-17.0,-934.0,-297.0,
273,4.35972785949707,0.016033649444580078,62.36883271375465,62.61858739767595,2.5685418262961973e-38,28.0,-925.0,-266.0,-5.6875,-95.5,77.5,-2.375,2.6875,1.5625,163.625,-0.875,107.625,0.1014404296875,-0.80084228515625,0.58428955078125,-0.0838623046875,44.0,8.0,30.0,-15.0,-934.0,-297.0,
274,4.37614107131958,0.016413211822509766,60.92652741059237,62.612241135402456,2.5685418262961973e-38,15.0,-925.0,-282.0,-5.6875,-95.5,77.5,-1.3125,2.6875,0.3125,163.8125,-0.8125,107.625,0.10150146484375,-0.80072021484375,0.58447265625,-0.08306884765625,29.0,9.0,14.0,-14.0,-934.0,-297.0,
275,4.389086008071899,0.012944936752319336,77.25028087300856,62.655413790992434,2.5685418262961973e-38,15.0,-916.0,-279.0,-5.6875,-95.5,77.5,-0.9375,2.3125,0.4375,163.875,-0.75,107.625,0.10150146484375,-0.80072021484375,0.58453369140625,-0.08270263671875,28.0,17.0,17.0,-13.0,-934.0,-297.0,
276,4.404742956161499,0.01565694808959961,63.86940764428201,62.65972901186485,2.5685418262961973e-38,37.0,-919.0,-274.0,-5.375,-96.5625,78.25,-0.6875,0.6875,-0.3125,164.0,-0.6875,107.5625,0.10174560546875,-0.8006591796875,0.584716796875,-0.08209228515625,49.0,14.0,22.0,-12.0,-934.0,-296.0,
277,4.423836946487427,0.019093990325927734,52.37249956296981,62.61532767837226,2.5685418262961973e-38,40.0,-898.0,-278.0,-5.375,-96.5625,78.25,-1.5625,0.0625,-0.75,164.125,-0.5625,107.5625,0.1024169921875,-0.800537109375,0.58489990234375,-0.08123779296875,50.0,36.0,18.0,-10.0,-934.0,-296.0,
278,4.443690061569214,0.01985311508178711,50.36992914615107,62.5606187983842,2.5685418262961973e-38,34.0,-914.0,-264.0,-5.375,-96.5625,78.25,-3.9375,-0.1875,-0.625,164.3125,-0.4375,107.625,0.10296630859375,-0.800537109375,0.5848388671875,-0.08050537109375,43.0,19.0,32.0,-9.0,-934.0,-296.0,
279,4.460229873657227,0.016539812088012695,60.460179032188314,62.55282976507893,2.5685418262961973e-38,34.0,-916.0,-268.0,-7.1875,-95.5,77.875,-4.875,-0.3125,-1.125,164.375,-0.375,107.625,0.10333251953125,-0.80059814453125,0.584716796875,-0.080078125,41.0,18.0,28.0,-7.0,-934.0,-297.0,
280,4.474268913269043,0.014039039611816406,71.22994361796074,62.58005618965426,2.5685418262961973e-38,45.0,-922.0,-289.0,-7.1875,-95.5,77.875,-5.625,-0.0625,-1.8125,164.5,-0.25,107.6875,0.1041259765625,-0.80084228515625,0.58441162109375,-0.0792236328125,50.0,11.0,8.0,-5.0,-934.0,-298.0,
281,4.4914231300354,0.017154216766357422,58.29470465601112,62.56368902784388,2.5685418262961973e-38,49.0,-926.0,-294.0,-7.1875,-95.5,77.875,-4.3125,1.375,-0.875,164.625,-0.1875,107.75,0.10443115234375,-0.80096435546875,0.584228515625,-0.0787353515625,53.0,7.0,4.0,-4.0,-933.0,-299.0,
282,4.509892225265503,0.01846909523010254,54.144503969534625,62.52921043659714,2.5685418262961973e-38,55.0,-930.0,-309.0,-6.0625,-97.0,76.5625,0.25,5.0625,0.5625,164.75,-0.1875,107.75,0.10400390625,-0.8011474609375,0.5841064453125,-0.078125,59.0,2.0,-9.0,-3.0,-933.0,-299.0,
283,4.524355173110962,0.014462947845458984,69.1421977514754,62.55035008787965,2.5685418262961973e-38,36.0,-914.0,-305.0,-6.0625,-97.0,76.5625,5.25,7.25,3.25,164.875,-0.1875,107.6875,0.10296630859375,-0.8009033203125,0.58477783203125,-0.07757568359375,40.0,19.0,-7.0,-3.0,-934.0,-298.0,
284,4.538492918014526,0.014137744903564453,70.73263853755607,62.57583852840794,2.5685418262961973e-38,7.0,-906.0,-285.0,-6.0625,-97.0,76.5625,6.4375,7.4375,4.0,164.9375,-0.1875,107.625,0.10235595703125,-0.8006591796875,0.58526611328125,-0.0771484375,10.0,28.0,11.0,-3.0,-934.0,-297.0,
285,4.553402900695801,0.014909982681274414,67.06915905783777,62.59055177314738,2.5685418262961973e-38,3.0,-933.0,-262.0,-6.875,-96.5625,78.6875,4.8125,3.1875,3.1875,165.0,-0.25,107.5,0.101318359375,-0.80023193359375,0.58599853515625,-0.0770263671875,7.0,1.0,33.0,-4.0,-935.0,-295.0,
286,4.569612979888916,0.016210079193115234,61.69001323724077,62.58735723543757,2.5685418262961973e-38,16.0,-939.0,-249.0,-6.875,-96.5625,78.6875,3.75,0.8125,1.125,165.0,-0.25,107.4375,0.1011962890625,-0.800048828125,0.5863037109375,-0.07708740234375,20.0,-4.0,45.0,-4.0,-935.0,-294.0,
287,4.585900068283081,0.01628708839416504,61.39832828305008,62.583134330585224,2.5685418262961973e-38,39.0,-935.0,-265.0,-6.875,-96.5625,78.6875,3.25,-0.25,-1.0,165.0,-0.25,107.375,0.10125732421875,-0.7996826171875,0.58673095703125,-0.0771484375,44.0,0.0,28.0,-4.0,-935.0,-293.0,
288,4.602216005325317,0.016315937042236328,61.28976824385539,62.57854904392783,2.5685418262961973e-38,21.0,-910.0,-253.0,-8.0,-96.1875,78.25,4.125,1.625,-1.0625,165.0,-0.1875,107.375,0.1011962890625,-0.79949951171875,0.5870361328125,-0.0770263671875,47.0,14.0,37.0,-4.0,-935.0,-293.0,
289,4.617043972015381,0.014827966690063477,67.440129918158,62.59416235835608,2.5685418262961973e-38,27.0,-921.0,-254.0,-8.0,-96.1875,78.25,2.4375,3.8125,1.25,165.125,-0.1875,107.3125,0.1007080078125,-0.79925537109375,0.5875244140625,-0.07666015625,31.0,14.0,38.0,-4.0,-936.0,-292.0,
290,4.631318092346191,0.014274120330810547,70.05685652246534,62.617163023040845,2.5685418262961973e-38,30.0,-917.0,-266.0,-8.0,-96.1875,78.25,0.6875,2.25,0.3125,165.1875,-0.1875,107.25,0.10076904296875,-0.799072265625,0.5877685546875,-0.0762939453125,33.0,18.0,25.0,-3.0,-936.0,-291.0,
291,4.646724224090576,0.015406131744384766,64.90922034108144,62.624762298423775,2.5685418262961973e-38,54.0,-937.0,-281.0,-8.0,-96.1875,78.25,-4.25,-3.625,-2.0625,165.25,-0.0625,107.3125,0.1015625,-0.799072265625,0.58770751953125,-0.075927734375,56.0,0.0,10.0,-1.0,-936.0,-291.0,
292,4.662940979003906,0.016216754913330078,61.66461818930283,62.621423113611186,2.5685418262961973e-38,77.0,-925.0,-296.0,-7.1875,-95.875,79.0625,-2.1875,-3.375,-1.5625,165.1875,-0.0625,107.375,0.102294921875,-0.79931640625,0.587158203125,-0.076171875,78.0,10.0,-3.0,-1.0,-935.0,-293.0,
293,4.681369781494141,0.018428802490234375,54.26288553094597,62.58851867636142,error,error,error,error,error,error,error,error,error,error,error,error,error,error,error,error,error,error,error,error,error,error,error,
294,4.693449974060059,0.012080192565917969,82.7801373648062,62.64048868633747,2.5685418262961973e-38,26.0,-928.0,-267.0,-7.1875,-95.875,79.0625,5.125,4.5625,4.8125,165.1875,-0.125,107.3125,0.10125732421875,-0.799072265625,0.58770751953125,-0.076171875,29.0,8.0,23.0,-2.0,-936.0,-291.0,
295,4.712744951248169,0.01929497718811035,51.82695943357758,62.5962158045216,2.5672503896314755e-38,7.0,-909.0,-263.0,-7.5625,-95.875,78.25,6.875,3.9375,4.9375,165.1875,-0.1875,107.125,0.10003662109375,-0.798583984375,0.588623046875,-0.07623291015625,10.0,27.0,26.0,-3.0,-936.0,-289.0,
296,4.72862696647644,0.015882015228271484,62.96430179842075,62.59745209306833,2.5672503896314755e-38,5.0,-910.0,-264.0,-7.5625,-95.875,78.25,5.4375,2.0625,3.75,165.1875,-0.25,107.125,0.09967041015625,-0.79833984375,0.5889892578125,-0.0762939453125,10.0,26.0,24.0,-4.0,-937.0,-288.0,
297,4.744310140609741,0.01568317413330078,63.762602614776526,62.601303708578676,2.5672503896314755e-38,21.0,-921.0,-262.0,-7.5625,-95.875,78.25,1.5,-4.4375,0.0,165.125,-0.25,107.0625,0.0997314453125,-0.798095703125,0.5892333984375,-0.07684326171875,26.0,16.0,25.0,-4.0,-937.0,-288.0,
298,4.759864091873169,0.015553951263427734,64.29234495232839,62.606829574986214,2.5672503896314755e-38,21.0,-921.0,-262.0,-7.5625,-95.875,78.25,1.5,-4.4375,0.0,165.0625,-0.25,107.0625,0.10015869140625,-0.79803466796875,0.5892333984375,-0.0771484375,46.0,17.0,17.0,-5.0,-937.0,-288.0,
299,4.775346040725708,0.015481948852539062,64.59135148453862,62.61326351012691,2.5672503896314755e-38,48.0,-904.0,-288.0,-8.0,-95.0625,77.875,0.6875,-4.5625,-1.0,165.0,-0.25,107.0625,0.10107421875,-0.7978515625,0.58929443359375,-0.07745361328125,53.0,32.0,0.0,-4.0,-937.0,-287.0,
300,4.789508104324341,0.014162063598632812,70.61117845117845,62.63691248985186,2.5672503896314755e-38,38.0,-908.0,-282.0,-8.0,-95.0625,77.875,1.0,-2.25,0.4375,164.9375,-0.25,107.0,0.1011962890625,-0.79779052734375,0.58935546875,-0.07757568359375,43.0,28.0,4.0,-4.0,-937.0,-287.0,
301,4.804250955581665,0.014742851257324219,67.82948444271945,62.652846985499956,2.5672503896314755e-38,18.0,-923.0,-262.0,-7.1875,-95.0625,77.5,2.1875,1.625,1.625,164.9375,-0.25,107.0,0.10089111328125,-0.797607421875,0.58953857421875,-0.07763671875,22.0,14.0,24.0,-4.0,-937.0,-287.0,
302,4.820278167724609,0.016027212142944336,62.39388304598128,62.6519859418316,2.5672503896314755e-38,18.0,-923.0,-262.0,-7.1875,-95.0625,77.5,3.0,2.125,1.875,165.0,-0.25,106.9375,0.1007080078125,-0.79742431640625,0.58984375,-0.0775146484375,18.0,13.0,22.0,-4.0,-937.0,-286.0,
303,4.836899757385254,0.01662158966064453,60.16271731023008,62.643431784452915,2.5672503896314755e-38,19.0,-932.0,-277.0,-7.1875,-95.0625,77.5,2.875,3.875,4.25,165.0625,-0.25,106.875,0.0999755859375,-0.79718017578125,0.59033203125,-0.07720947265625,24.0,5.0,8.0,-5.0,-938.0,-285.0,
304,4.852038860321045,0.015139102935791016,66.05411194053356,62.65407362790273,2.5672503896314755e-38,20.0,-930.0,-269.0,-7.1875,-95.0625,77.5,3.3125,3.875,4.75,165.0625,-0.25,106.875,0.09906005859375,-0.79693603515625,0.59088134765625,-0.0770263671875,30.0,27.0,19.0,-5.0,-938.0,-284.0,
305,4.866361856460571,0.014322996139526367,69.81779442363712,62.675158361904934,2.5672503896314755e-38,24.0,-910.0,-265.0,-7.1875,-94.6875,79.0625,2.9375,3.4375,4.625,165.125,-0.3125,106.8125,0.0987548828125,-0.79681396484375,0.59112548828125,-0.07696533203125,30.0,26.0,14.0,-5.0,-938.0,-283.0,
306,4.883152008056641,0.016790151596069336,59.5587237124235,62.66444286295719,2.5672503896314755e-38,36.0,-920.0,-271.0,-7.1875,-94.6875,79.0625,3.5625,3.1875,3.5625,165.1875,-0.3125,106.75,0.09808349609375,-0.79656982421875,0.59161376953125,-0.07659912109375,42.0,18.0,10.0,-5.0,-939.0,-282.0,
307,4.898921966552734,0.01576995849609375,63.41170778906628,62.66684835889094,2.5672503896314755e-38,33.0,-927.0,-265.0,-7.1875,-94.6875,79.0625,4.1875,3.3125,2.75,165.25,-0.3125,106.6875,0.09783935546875,-0.79632568359375,0.59197998046875,-0.07635498046875,39.0,11.0,16.0,-5.0,-939.0,-281.0,
308,4.914445161819458,0.015523195266723633,64.4197269194735,62.67238515404865,2.5672503896314755e-38,26.0,-913.0,-268.0,-8.0,-95.5,78.25,4.625,2.8125,3.375,165.3125,-0.3125,106.625,0.09759521484375,-0.796142578125,0.59234619140625,-0.07623291015625,32.0,26.0,12.0,-5.0,-939.0,-281.0,
309,4.930117845535278,0.015672683715820312,63.805281732992576,62.675986595296266,2.5672503896314755e-38,28.0,-895.0,-266.0,-8.0,-95.5,78.25,3.125,1.5,4.5,165.3125,-0.3125,106.5625,0.09710693359375,-0.7957763671875,0.5928955078125,-0.07611083984375,46.0,20.0,8.0,-5.0,-939.0,-279.0,
310,4.94496488571167,0.014847040176391602,67.3534918825173,62.69003059975933,2.5672503896314755e-38,25.0,-931.0,-265.0,-8.0,-95.5,78.25,-1.0,-0.3125,3.625,165.375,-0.3125,106.5625,0.09686279296875,-0.7957763671875,0.5928955078125,-0.07598876953125,41.0,51.0,25.0,-5.0,-939.0,-279.0,
311,4.961160898208618,0.016196012496948242,61.743592763245054,62.68694089568759,2.5672503896314755e-38,40.0,-962.0,-249.0,-8.0,-95.0625,78.6875,-0.875,0.625,4.125,165.375,-0.3125,106.5625,0.0968017578125,-0.7957763671875,0.593017578125,-0.07586669921875,45.0,234.0,25.0,-5.0,-939.0,-279.0,
312,4.975182771682739,0.014021873474121094,71.31714616064748,62.71126395110773,2.5672503896314755e-38,35.0,-949.0,-236.0,-8.0,-95.0625,78.6875,4.3125,3.0,3.75,165.375,-0.375,106.5,0.0960693359375,-0.7955322265625,0.5933837890625,-0.075927734375,34.0,3.0,40.0,-6.0,-940.0,-278.0,
313,4.989102840423584,0.013920068740844727,71.8387257000942,62.73673043256525,2.5672503896314755e-38,27.0,-937.0,-238.0,-8.0,-95.0625,78.6875,6.0,2.6875,3.875,165.375,-0.375,106.4375,0.09564208984375,-0.7952880859375,0.59375,-0.07598876953125,19.0,14.0,42.0,-7.0,-940.0,-277.0,
314,5.0042219161987305,0.015119075775146484,66.14160910839878,62.74701747010419,2.5672503896314755e-38,7.0,-918.0,-238.0,-8.0,-95.0625,78.6875,5.0,2.0625,3.4375,165.375,-0.4375,106.375,0.09527587890625,-0.79510498046875,0.5941162109375,-0.0760498046875,15.0,22.0,38.0,-7.0,-940.0,-277.0,
315,5.020972013473511,0.016750097274780273,59.701145825919866,62.73685636062386,2.5672503896314755e-38,4.0,-931.0,-231.0,-8.6875,-94.6875,79.5625,2.875,-0.0625,1.4375,165.375,-0.4375,106.375,0.09515380859375,-0.79498291015625,0.59429931640625,-0.076171875,12.0,9.0,45.0,-7.0,-940.0,-276.0,
316,5.0364439487457275,0.015471935272216797,64.63315560760626,62.742681784177584,2.5672503896314755e-38,11.0,-921.0,-255.0,-8.6875,-94.6875,79.5625,-1.5625,-4.4375,-3.6875,165.3125,-0.375,106.3125,0.096435546875,-0.7945556640625,0.5946044921875,-0.07635498046875,23.0,20.0,15.0,-6.0,-941.0,-275.0,
317,5.052227020263672,0.015783071517944336,63.35902355020468,62.74460722540057,2.5672503896314755e-38,28.0,-940.0,-263.0,-8.6875,-94.6875,79.5625,-2.0,-3.3125,-3.75,165.375,-0.3125,106.3125,0.09698486328125,-0.7945556640625,0.59454345703125,-0.0762939453125,33.0,0.0,12.0,-5.0,-941.0,-276.0,
318,5.064306020736694,0.012079000473022461,82.78830704853641,62.79241394534471,2.5672503896314755e-38,29.0,-941.0,-258.0,-9.0625,-93.5625,79.1875,-0.9375,-1.25,-3.375,165.375,-0.25,106.3125,0.09735107421875,-0.79449462890625,0.59454345703125,-0.0760498046875,34.0,0.0,17.0,-4.0,-941.0,-275.0,
319,5.079608201980591,0.015302181243896484,65.35016048113178,62.8001190870624,2.56818309388933e-38,25.0,-935.0,-254.0,-9.0625,-93.5625,79.1875,2.0,0.75,-0.9375,165.5,-0.1875,106.25,0.09771728515625,-0.794189453125,0.594970703125,-0.0755615234375,27.0,6.0,12.0,-3.0,-941.0,-275.0,
320,5.0949671268463135,0.015358924865722656,65.10872399875815,62.80707844293273,2.56818309388933e-38,19.0,-920.0,-260.0,-9.0625,-93.5625,79.1875,1.1875,-0.8125,1.0625,165.5,-0.1875,106.25,0.0977783203125,-0.7939453125,0.59527587890625,-0.0755615234375,5.0,47.0,9.0,-3.0,-941.0,-274.0,
321,5.110354900360107,0.015387773513793945,64.98665964270774,62.8136413730053,2.56818309388933e-38,7.0,-876.0,-257.0,-8.375,-93.5625,77.875,-0.0625,-1.9375,3.8125,165.4375,-0.1875,106.25,0.09765625,-0.79400634765625,0.59521484375,-0.07586669921875,11.0,64.0,17.0,-3.0,-941.0,-274.0,
322,5.1264121532440186,0.016057252883911133,62.27715333561003,62.81196095328325,2.56818309388933e-38,11.0,-912.0,-262.0,-8.375,-93.5625,77.875,0.0625,-3.0625,4.25,165.25,-0.3125,106.25,0.0972900390625,-0.79400634765625,0.5950927734375,-0.0767822265625,12.0,24.0,0.0,-6.0,-941.0,-274.0,
323,5.14143705368042,0.015024900436401367,66.55618146908076,62.82290274638009,2.56818309388933e-38,23.0,-909.0,-268.0,-8.375,-93.5625,77.875,-0.6875,-2.875,1.75,165.1875,-0.375,106.25,0.0972900390625,-0.7940673828125,0.59503173828125,-0.07708740234375,29.0,32.0,6.0,-6.0,-941.0,-274.0,
324,5.1572418212890625,0.015804767608642578,63.272047065922465,62.82427918398746,2.56818309388933e-38,21.0,-937.0,-260.0,-8.375,-93.5625,77.875,-1.125,-3.5,-0.25,165.1875,-0.375,106.25,0.09747314453125,-0.7940673828125,0.59490966796875,-0.0772705078125,28.0,4.0,13.0,-6.0,-941.0,-274.0,
325,5.17317795753479,0.01593613624572754,62.75046752741581,62.8240518048744,2.56818309388933e-38,47.0,-928.0,-265.0,-8.6875,-93.5625,79.1875,-0.625,-1.1875,1.0625,165.0625,-0.375,106.25,0.097900390625,-0.79425048828125,0.5946044921875,-0.0777587890625,54.0,-47.0,9.0,-6.0,-941.0,-275.0,
326,5.187717914581299,0.014539957046508789,68.77599409690907,62.84073370367739,2.56818309388933e-38,47.0,-988.0,-265.0,-8.6875,-93.5625,79.1875,0.4375,1.75,-0.75,165.125,-0.375,106.25,0.09783935546875,-0.79425048828125,0.5946044921875,-0.07757568359375,53.0,5.0,-1.0,-6.0,-941.0,-275.0,
327,5.202502965927124,0.014785051345825195,67.635882798768,62.854361091503236,2.56818309388933e-38,27.0,-918.0,-232.0,-8.6875,-93.5625,79.1875,3.9375,3.3125,0.0625,165.125,-0.375,106.25,0.09765625,-0.7940673828125,0.59490966796875,-0.077392578125,33.0,22.0,41.0,-6.0,-941.0,-274.0,
328,5.21656608581543,0.014063119888305664,71.1079766042214,62.876611664496636,2.56818309388933e-38,15.0,-897.0,-245.0,-8.6875,-95.0625,79.1875,4.75,4.0,2.3125,165.1875,-0.3125,106.1875,0.097412109375,-0.7938232421875,0.5953369140625,-0.07708740234375,21.0,44.0,27.0,-6.0,-941.0,-273.0,
329,5.231150150299072,0.014584064483642578,68.56799084518555,62.892478813897284,2.56818309388933e-38,9.0,-929.0,-248.0,-8.6875,-95.0625,79.1875,1.9375,3.875,1.375,165.3125,-0.3125,106.125,0.09674072265625,-0.7935791015625,0.59588623046875,-0.07659912109375,16.0,12.0,24.0,-6.0,-941.0,-272.0,
330,5.24889612197876,0.0177459716796875,56.35081685296647,62.8703621354188,2.56818309388933e-38,-5.0,-929.0,-248.0,-8.6875,-95.0625,79.1875,-0.25,0.3125,-1.125,165.375,-0.3125,106.125,0.09674072265625,-0.79345703125,0.59600830078125,-0.076416015625,0.0,12.0,23.0,-5.0,-942.0,-272.0,
331,5.264318943023682,0.015422821044921875,64.83898095473658,62.87612957771943,2.56818309388933e-38,1.0,-939.0,-256.0,-9.5,-95.0625,78.25,-1.3125,-1.25,-1.5,165.375,-0.3125,106.125,0.096923828125,-0.79351806640625,0.59588623046875,-0.076416015625,6.0,2.0,15.0,-5.0,-941.0,-272.0,
332,5.279169082641602,0.014850139617919922,67.33943422277879,62.88868471586691,2.56818309388933e-38,51.0,-953.0,-257.0,-9.5,-95.0625,78.25,-0.4375,-1.5,-4.0625,165.4375,-0.1875,106.125,0.09771728515625,-0.7933349609375,0.5960693359375,-0.07598876953125,50.0,-8.0,-1.0,-3.0,-942.0,-272.0,
333,5.295146942138672,0.015977859497070312,62.586606183597944,62.887773207952506,2.56818309388933e-38,43.0,-928.0,-275.0,-9.5,-95.0625,78.25,0.4375,0.25,-3.9375,165.5,-0.125,106.0625,0.09814453125,-0.793212890625,0.59619140625,-0.07568359375,46.0,25.0,1.0,-3.0,-942.0,-272.0,
334,5.310586929321289,0.015439987182617188,64.766893143916,62.89323655656388,2.56818309388933e-38,26.0,-933.0,-255.0,-9.0625,-95.5,80.0,2.1875,0.8125,-0.125,165.5,-0.125,106.0625,0.09808349609375,-0.7930908203125,0.59637451171875,-0.07562255859375,29.0,8.0,16.0,-2.0,-942.0,-271.0,
335,5.326709032058716,0.016122102737426758,62.02664852634537,62.89061369483628,2.56818309388933e-38,23.0,-926.0,-247.0,-9.0625,-95.5,80.0,1.8125,1.1875,1.1875,165.5625,-0.125,106.0,0.09783935546875,-0.79290771484375,0.5966796875,-0.0755615234375,20.0,11.0,22.0,-2.0,-942.0,-271.0,
336,5.341670989990234,0.014961957931518555,66.83617241654052,62.90166515864248,2.56818309388933e-38,14.0,-937.0,-247.0,-9.0625,-95.5,80.0,2.0625,1.3125,1.5625,165.5625,-0.125,106.0,0.0977783203125,-0.79278564453125,0.59686279296875,-0.075439453125,17.0,4.0,22.0,-2.0,-942.0,-270.0,
337,5.357367992401123,0.015697002410888672,63.70643093654121,62.904023109482104,2.56818309388933e-38,18.0,-936.0,-252.0,-9.0625,-95.5,80.0,0.6875,-0.9375,-0.5,165.5625,-0.125,106.0,0.097900390625,-0.79266357421875,0.59698486328125,-0.075439453125,20.0,6.0,18.0,-2.0,-942.0,-270.0,
