Index,Time,Difference,Hz,AveHz,Pressure,Acceleration-X,Acceleration-Y,Acceleration-Z,Magnetic-X,Magnetic-Y,Magnetic-Z,Angular-Vel-X,Angular-Vel-Y,Angular-Vel-Z,Heading,Roll,Pitch,Quaternion-X,Quaternion-Y,Quaternion-Z,Quaternion-W,Linear-Acceleration-X,Linear-Acceleration-Y,Linear-Acceleration-Z,Gravity-X,Gravity-Y,Gravity-Z,
0,3.0994415283203125e-06,3.0994415283203125e-06,322638.76923076925,0.0,2.571626924995255e-38,73.0,-31.0,-918.0,4.5,123.25,-71.25,36.9375,105.8125,-0.375,159.75,9.25,177.9375,0.98114013671875,0.1746826171875,0.07666015625,-0.0313720703125,-84.0,3.0,48.0,158.0,-34.0,-967.0,
1,0.014014959335327148,0.014011859893798828,71.36811298281437,71.35232975520134,2.571626924995255e-38,15.0,-115.0,-1195.0,4.5,123.25,-71.25,15.875,112.5,8.875,159.875,10.3125,177.75,0.98046875,0.17376708984375,0.085693359375,-0.034423828125,-161.0,-78.0,-231.0,176.0,-36.0,-963.0,
2,0.030704259872436523,0.016689300537109375,59.91862857142857,65.1375414456877,2.571626924995255e-38,-142.0,-308.0,-1386.0,4.5,123.25,-71.25,-10.5,106.1875,22.75,160.3125,12.4375,177.8125,0.9793701171875,0.16943359375,0.10400390625,-0.03680419921875,-354.0,-272.0,-429.0,212.0,-36.0,-956.0,
3,0.04696297645568848,0.016258716583251953,61.50546968941549,63.88010782984816,2.571626924995255e-38,-139.0,-409.0,-1327.0,4.5,123.25,-71.25,-7.9375,85.375,22.375,160.5625,13.25,177.8125,0.9788818359375,0.167236328125,0.11114501953125,-0.03759765625,-365.0,-373.0,-373.0,225.0,-35.0,-953.0,
4,0.06346702575683594,0.01650404930114746,60.591190789188566,63.024853493613826,2.571626924995255e-38,122.0,-351.0,-1070.0,10.875,120.5625,-72.0625,13.4375,42.875,32.5,161.1875,14.25,177.5,0.97869873046875,0.162109375,0.119140625,-0.04095458984375,-119.0,-310.0,-121.0,241.0,-40.0,-949.0,
5,0.07992410659790039,0.016457080841064453,60.764117868629214,62.55934802193147,2.571626924995255e-38,433.0,-216.0,-951.0,10.875,120.5625,-72.0625,10.125,50.25,86.1875,162.5,15.0625,176.9375,0.97943115234375,0.1507568359375,0.1259765625,-0.045654296875,178.0,-166.0,-5.0,255.0,-50.0,-945.0,
6,0.09365296363830566,0.013728857040405273,72.8392754806106,64.06631212624966,2.571626924995255e-38,399.0,-128.0,-953.0,10.875,120.5625,-72.0625,-1.9375,62.125,125.8125,163.6875,15.625,176.5625,0.9803466796875,0.14007568359375,0.130615234375,-0.04766845703125,135.0,-72.0,-10.0,264.0,-55.0,-942.0,
7,0.11053013801574707,0.016877174377441406,59.25162456913601,63.33114321274728,2.571626924995255e-38,344.0,-78.0,-941.0,16.75,119.875,-72.1875,-46.875,73.0,196.1875,167.3125,16.75,176.1875,0.98272705078125,0.10888671875,0.14178466796875,-0.04766845703125,60.0,-16.0,-4.0,283.0,-61.0,-936.0,
8,0.12636804580688477,0.015837907791137695,63.13965286245465,63.30714342315282,2.571626924995255e-38,427.0,-125.0,-869.0,16.75,119.875,-72.1875,-72.625,69.6875,221.0625,169.5625,17.3125,176.25,0.9840087890625,0.08935546875,0.1473388671875,-0.044921875,135.0,-65.0,64.0,292.0,-60.0,-934.0,
9,0.1401510238647461,0.013782978057861328,72.55326068154298,64.21644132036826,2.571626924995255e-38,489.0,-113.0,-730.0,16.75,119.875,-72.1875,-98.125,54.4375,248.125,174.625,18.125,176.5,0.9859619140625,0.04608154296875,0.15643310546875,-0.03619384765625,183.0,-57.0,199.0,305.0,-55.0,-930.0,
10,0.15481185913085938,0.014660835266113281,68.20893774799974,64.59453465736885,2.571626924995255e-38,557.0,-40.0,-628.0,32.5625,115.0,-69.5625,-99.9375,50.375,246.75,177.1875,18.5,176.6875,0.98626708984375,0.0240478515625,0.16021728515625,-0.03131103515625,245.0,12.0,299.0,311.0,-53.0,-928.0,
11,0.1693251132965088,0.014513254165649414,68.9025347855371,64.96378349227895,2.5725596292531094e-38,605.0,-34.0,-662.0,32.5625,115.0,-69.5625,-94.4375,51.375,227.0,182.0,19.25,177.0,0.98541259765625,-0.0174560546875,0.167724609375,-0.02166748046875,282.0,12.0,262.0,323.0,-47.0,-924.0,
12,0.18495893478393555,0.015633821487426758,63.96388757567902,64.87926638428202,2.5725596292531094e-38,603.0,-22.0,-670.0,32.5625,115.0,-69.5625,-88.875,53.375,224.125,184.3125,19.625,177.125,0.98431396484375,-0.03741455078125,0.17156982421875,-0.01739501953125,273.0,23.0,251.0,330.0,-46.0,-922.0,
13,0.2007150650024414,0.01575613021850586,63.46736071179978,64.76843180576343,2.5725596292531094e-38,518.0,-31.0,-704.0,58.0,109.375,-60.375,-82.6875,55.375,216.4375,188.875,20.5,177.1875,0.98077392578125,-0.076416015625,0.179443359375,-0.0093994140625,174.0,13.0,212.0,343.0,-44.0,-917.0,
14,0.2157900333404541,0.015074968338012695,66.33513103164687,64.87788051782753,2.5725596292531094e-38,577.0,-47.0,-710.0,58.0,109.375,-60.375,-78.625,55.5625,208.0,191.0625,20.9375,177.125,0.97845458984375,-0.09490966796875,0.183349609375,-0.00567626953125,226.0,-2.0,203.0,350.0,-45.0,-914.0,
15,0.22981715202331543,0.014027118682861328,71.29047829486352,65.26927980761948,2.5725596292531094e-38,561.0,-26.0,-771.0,58.0,109.375,-60.375,-63.9375,59.3125,182.9375,195.0,21.875,177.0,0.97308349609375,-0.12841796875,0.19146728515625,0.000732421875,196.0,20.0,137.0,365.0,-46.0,-908.0,
16,0.24550819396972656,0.015691041946411133,63.73063072645222,65.17094090135724,2.5725596292531094e-38,492.0,31.0,-803.0,58.0,109.375,-60.375,-54.875,62.1875,167.5,196.75,22.375,176.875,0.9700927734375,-0.14300537109375,0.19598388671875,0.003173828125,119.0,80.0,101.0,373.0,-48.0,-905.0,
17,0.26138901710510254,0.015880823135375977,62.96902820940113,65.0371625720006,2.5725596292531094e-38,273.0,94.0,-927.0,78.375,100.375,-51.25,-44.125,56.25,136.4375,199.75,23.375,176.5625,0.96429443359375,-0.16815185546875,0.20458984375,0.0074462890625,-116.0,147.0,-29.0,389.0,-53.0,-898.0,
18,0.2771940231323242,0.01580500602722168,63.27109260683954,64.93646506731255,2.5725596292531094e-38,329.0,23.0,-832.0,78.375,100.375,-51.25,-40.6875,44.0625,119.375,201.0,23.6875,176.4375,0.96173095703125,-0.1785888671875,0.2076416015625,0.00933837890625,-111.0,111.0,-5.0,394.0,-55.0,-895.0,
19,0.2938830852508545,0.016689062118530273,59.9194845640652,64.65156027534509,2.5725596292531094e-38,376.0,17.0,-770.0,78.375,100.375,-51.25,-29.875,24.625,90.1875,203.0,24.125,176.25,0.9576416015625,-0.1953125,0.21136474609375,0.01220703125,-25.0,75.0,122.0,401.0,-58.0,-892.0,
20,0.3114650249481201,0.017581939697265625,56.876545888479065,64.21266722750443,2.5725596292531094e-38,355.0,170.0,-607.0,95.25,89.6875,-42.5,-9.875,28.875,76.25,204.625,24.5625,175.8125,0.95391845703125,-0.20855712890625,0.21527099609375,0.01251220703125,-52.0,235.0,282.0,407.0,-64.0,-889.0,
21,0.32710719108581543,0.015642166137695312,63.929764662846,64.19913891312382,2.5725596292531094e-38,373.0,243.0,-632.0,95.25,89.6875,-42.5,-14.5,51.375,73.25,205.375,24.875,175.5625,0.951904296875,-0.214599609375,0.2183837890625,0.0125732421875,-56.0,285.0,287.0,412.0,-68.0,-886.0,
22,0.3435230255126953,0.016415834426879883,60.9167937490015,64.04228644401877,2.5725596292531094e-38,297.0,226.0,-740.0,95.25,89.6875,-42.5,-22.0625,62.0625,68.6875,206.875,25.875,175.25,0.94708251953125,-0.22650146484375,0.2269287109375,0.01495361328125,-130.0,299.0,139.0,428.0,-72.0,-879.0,
23,0.36005091667175293,0.016527891159057617,60.50378662204463,63.87985402900217,2.5725596292531094e-38,220.0,157.0,-809.0,102.5,83.0,-38.1875,-29.6875,62.0,44.0625,208.0625,27.0,175.25,0.94244384765625,-0.2357177734375,0.23614501953125,0.0201416015625,-224.0,229.0,61.0,445.0,-71.0,-870.0,
24,0.3764350414276123,0.016384124755859375,61.03469150174622,63.756019920412086,2.5725596292531094e-38,198.0,92.0,-820.0,102.5,83.0,-38.1875,-21.5625,54.1875,22.0625,208.3125,27.5,175.3125,0.94091796875,-0.23785400390625,0.24005126953125,0.0224609375,-255.0,162.0,46.0,453.0,-70.0,-866.0,
25,0.39296507835388184,0.01653003692626953,60.49593261408873,63.61888467220599,2.5725596292531094e-38,258.0,10.0,-796.0,102.5,83.0,-38.1875,0.5625,34.125,-22.375,208.1875,28.3125,175.5,0.93975830078125,-0.2359619140625,0.24603271484375,0.0252685546875,-206.0,77.0,64.0,465.0,-67.0,-860.0,
26,0.4092381000518799,0.016273021697998047,61.45140211562692,63.53269648330381,2.5725596292531094e-38,548.0,-318.0,-775.0,108.1875,76.875,-32.375,7.4375,30.5,-42.5,207.375,28.9375,175.75,0.94012451171875,-0.22930908203125,0.2508544921875,0.02703857421875,74.0,-255.0,79.0,474.0,-62.0,-855.0,
27,0.4260721206665039,0.016834020614624023,59.403515232200775,63.369553393364356,2.5725596292531094e-38,584.0,-360.0,-807.0,108.1875,76.875,-32.375,9.625,37.9375,-36.125,207.0,29.3125,175.875,0.94000244140625,-0.22613525390625,0.25396728515625,0.02777099609375,104.0,-298.0,45.0,480.0,-61.0,-852.0,
28,0.4422919750213623,0.0162198543548584,61.652834737105145,63.30659740920605,2.5725596292531094e-38,461.0,-222.0,-880.0,108.1875,76.875,-32.375,22.3125,54.25,-8.625,206.6875,30.3125,175.625,0.93841552734375,-0.22271728515625,0.2626953125,0.02734375,-33.0,-158.0,-36.0,495.0,-64.0,-843.0,
29,0.4619472026824951,0.019655227661132812,50.87704997573993,62.77773700457331,2.5725596292531094e-38,387.0,-28.0,-1151.0,108.25,80.0625,-28.5625,26.4375,50.0,-9.75,206.4375,31.3125,175.125,0.93646240234375,-0.2200927734375,0.27197265625,0.02545166015625,-123.0,42.0,-317.0,510.0,-70.0,-834.0,
30,0.47781825065612793,0.015871047973632812,63.007811561110444,62.78537908253768,2.5725596292531094e-38,534.0,-74.0,-1172.0,108.25,80.0625,-28.5625,20.8125,25.625,-27.5,205.875,32.0,174.9375,0.9359130859375,-0.21527099609375,0.27783203125,0.02423095703125,14.0,-1.0,-344.0,520.0,-72.0,-828.0,
31,0.4934709072113037,0.01565265655517578,63.886918905745446,62.82031938860751,2.5725596292531094e-38,601.0,-91.0,-1136.0,108.25,80.0625,-28.5625,21.875,12.0625,-36.4375,205.5,32.125,174.9375,0.936279296875,-0.21185302734375,0.27911376953125,0.0235595703125,78.0,-18.0,-309.0,522.0,-72.0,-826.0,
32,0.510202169418335,0.01673126220703125,59.768353853169174,62.72023507168181,2.5725596292531094e-38,641.0,-98.0,-1098.0,108.25,78.875,-24.375,26.5625,2.6875,-44.3125,204.375,32.25,175.0,0.93804931640625,-0.2030029296875,0.27996826171875,0.02142333984375,129.0,-12.0,-231.0,523.0,-72.0,-826.0,
33,0.5288271903991699,0.01862502098083496,53.69121468528783,62.402237629065375,2.5725596292531094e-38,684.0,-61.0,-894.0,108.25,78.875,-24.375,21.8125,3.375,-45.875,203.3125,32.375,175.125,0.939697265625,-0.19403076171875,0.2808837890625,0.0198974609375,159.0,8.0,-69.0,525.0,-70.0,-825.0,
34,0.542788028717041,0.013960838317871094,71.62893640275975,62.63955393482789,2.5725596292531094e-38,626.0,-54.0,-840.0,108.25,78.875,-24.375,10.5,9.8125,-30.8125,203.0,32.5,175.1875,0.94000244140625,-0.1912841796875,0.28179931640625,0.01995849609375,99.0,14.0,-15.0,527.0,-68.0,-824.0,
35,0.5671319961547852,0.02434396743774414,41.07793861281414,61.71402819326664,2.5727748686972297e-38,488.0,-138.0,-645.0,106.5,83.75,-26.375,-30.875,29.375,9.8125,203.125,33.1875,175.75,0.938232421875,-0.1920166015625,0.28662109375,0.02569580078125,-12.0,-50.0,134.0,533.0,-64.0,-820.0,
36,0.5808389186859131,0.01370692253112793,72.95583656572333,61.97931791734309,2.5727748686972297e-38,441.0,-136.0,-606.0,106.5,83.75,-26.375,-35.0625,31.5,16.3125,203.375,33.5,175.9375,0.9371337890625,-0.194091796875,0.28863525390625,0.028564453125,-100.0,-79.0,208.0,541.0,-57.0,-815.0,
37,0.5951120853424072,0.01427316665649414,70.06153743360171,62.17316184851373,2.5727748686972297e-38,386.0,-105.0,-548.0,106.5,83.75,-26.375,-30.9375,31.4375,19.4375,203.6875,33.75,176.125,0.93597412109375,-0.1962890625,0.2906494140625,0.03106689453125,-158.0,-50.0,264.0,545.0,-54.0,-813.0,
38,0.6115021705627441,0.016390085220336914,61.01249545421485,62.14205252130164,2.5727748686972297e-38,395.0,-75.0,-542.0,105.375,85.6875,-26.0,-25.4375,28.625,20.0625,203.9375,34.0,176.1875,0.93487548828125,-0.19842529296875,0.29254150390625,0.0330810546875,-146.0,8.0,258.0,552.0,-51.0,-808.0,
39,0.6262102127075195,0.01470804214477539,67.9900145890744,62.279405874550164,2.5727748686972297e-38,513.0,27.0,-576.0,105.375,85.6875,-26.0,-19.0625,27.375,15.125,204.375,34.5,176.375,0.932861328125,-0.201904296875,0.29620361328125,0.03631591796875,-122.0,42.0,229.0,556.0,-50.0,-805.0,
40,0.6432271003723145,0.017016887664794922,58.7651525765685,62.18643458406384,2.5727748686972297e-38,513.0,27.0,-643.0,105.375,85.6875,-26.0,-31.75,39.625,18.125,204.875,35.1875,176.625,0.9302978515625,-0.20562744140625,0.301025390625,0.04107666015625,-37.0,52.0,111.0,565.0,-46.0,-799.0,
41,0.6600089073181152,0.01678180694580078,59.58833892140706,62.12037374859028,2.5727748686972297e-38,496.0,-9.0,-725.0,106.375,85.25,-19.25,-41.625,46.125,26.1875,205.3125,35.625,176.875,0.928466796875,-0.20855712890625,0.30401611328125,0.04449462890625,-96.0,6.0,43.0,578.0,-39.0,-790.0,
42,0.6759319305419922,0.015923023223876953,62.80214416195011,62.1364343097722,2.5727748686972297e-38,481.0,-33.0,-747.0,106.375,85.25,-19.25,-49.125,49.4375,29.625,206.1875,36.5625,177.3125,0.9244384765625,-0.21533203125,0.310302734375,0.05230712890625,-61.0,-47.0,-24.0,584.0,-36.0,-786.0,
43,0.6927571296691895,0.016825199127197266,59.43466062066034,62.07081552597471,2.5727748686972297e-38,515.0,-73.0,-838.0,106.375,85.25,-19.25,-46.875,40.0,28.375,207.0625,37.375,177.8125,0.920654296875,-0.22198486328125,0.31549072265625,0.05975341796875,-105.0,-26.0,-69.0,595.0,-29.0,-778.0,
44,0.7086222171783447,0.015865087509155273,63.03148340171017,62.09232357292315,2.5727748686972297e-38,517.0,-70.0,-806.0,109.0,83.75,-15.1875,-44.8125,31.1875,23.875,207.4375,37.6875,178.0625,0.91912841796875,-0.22491455078125,0.31719970703125,0.063232421875,-82.0,-44.0,-30.0,599.0,-25.0,-775.0,
45,0.7210690975189209,0.012446880340576172,80.34141669539899,62.40733399175964,2.5727748686972297e-38,575.0,-97.0,-772.0,109.0,83.75,-15.1875,-36.0625,16.25,14.875,208.0625,38.0625,178.5625,0.9169921875,-0.2293701171875,0.31890869140625,0.069091796875,19.0,-95.0,26.0,604.0,-19.0,-771.0,
46,0.7362570762634277,0.015187978744506836,65.84154592405382,62.47817709739949,2.5727748686972297e-38,645.0,-114.0,-745.0,109.0,83.75,-15.1875,-29.5,14.625,10.8125,208.25,38.1875,178.75,0.916259765625,-0.23095703125,0.31951904296875,0.07135009765625,38.0,-114.0,49.0,606.0,-16.0,-770.0,
47,0.751352071762085,0.015094995498657227,66.24712144425315,62.553896856602414,2.5727748686972297e-38,685.0,-125.0,-703.0,109.0,83.75,-15.1875,-24.9375,16.5625,8.0625,208.4375,38.3125,178.9375,0.91546630859375,-0.23211669921875,0.32037353515625,0.0733642578125,77.0,-111.0,65.0,608.0,-14.0,-768.0,
48,0.7666492462158203,0.015297174453735352,65.37154969529777,62.61011829976738,2.5727748686972297e-38,665.0,-91.0,-706.0,110.75,81.5,-9.375,-27.0625,31.8125,8.6875,208.5625,38.5,179.0625,0.91461181640625,-0.2332763671875,0.321533203125,0.0753173828125,76.0,-99.0,63.0,611.0,-12.0,-766.0,
49,0.7830679416656494,0.0164186954498291,60.906178755536196,62.574391560166546,2.5727748686972297e-38,618.0,-74.0,-722.0,110.75,81.5,-9.375,-28.5,33.5,15.4375,209.25,39.4375,179.5,0.9107666015625,-0.23809814453125,0.3272705078125,0.0821533203125,-63.0,-19.0,16.0,622.0,-6.0,-757.0,
50,0.7987160682678223,0.01564812660217285,63.90541343531455,62.60046840980067,2.5727748686972297e-38,541.0,-4.0,-739.0,110.75,81.5,-9.375,-29.1875,33.4375,15.125,209.5,39.75,179.6875,0.9093017578125,-0.23980712890625,0.329345703125,0.08465576171875,-85.0,0.0,14.0,627.0,-3.0,-753.0,
51,0.8157870769500732,0.017071008682250977,58.578846664152735,62.51631270094419,2.5727748686972297e-38,558.0,-4.0,-749.0,113.0625,81.375,-4.75,-29.75,31.375,14.5625,209.75,40.0625,179.8125,0.90789794921875,-0.24151611328125,0.331298828125,0.087158203125,-95.0,-2.0,1.0,631.0,-1.0,-750.0,
52,0.8297171592712402,0.013930082321166992,71.78708473822034,62.6719592561793,2.5727748686972297e-38,569.0,-46.0,-803.0,113.0625,81.375,-4.75,-22.75,22.0,-0.0625,210.1875,40.75,-179.5,0.90484619140625,-0.2445068359375,0.3355712890625,0.09423828125,-51.0,-58.0,-72.0,640.0,6.0,-742.0,
53,0.8460431098937988,0.016325950622558594,61.25217594485659,62.64456193804702,2.5727748686972297e-38,625.0,-45.0,-822.0,113.0625,81.375,-4.75,-21.0,20.5,0.875,210.3125,40.9375,-179.3125,0.904052734375,-0.2449951171875,0.33673095703125,0.09625244140625,-17.0,-54.0,-82.0,643.0,8.0,-740.0,
54,0.8585281372070312,0.012485027313232422,80.09594011381431,62.89834620408961,2.5727748686972297e-38,712.0,7.0,-822.0,115.1875,81.0625,-0.6875,-23.8125,20.875,6.625,210.4375,41.1875,-179.125,0.90313720703125,-0.24603271484375,0.337890625,0.09832763671875,66.0,-3.0,-84.0,645.0,11.0,-737.0,
55,0.8740510940551758,0.015522956848144531,64.42071634822142,62.925383165904535,2.5727748686972297e-38,773.0,-5.0,-796.0,115.1875,81.0625,-0.6875,-38.375,31.1875,33.125,211.1875,41.75,-178.875,0.89990234375,-0.25128173828125,0.3411865234375,0.103271484375,149.0,-16.0,-49.0,653.0,14.0,-731.0,
56,0.8880910873413086,0.014039993286132812,71.22510528460806,63.056594980192884,2.5727748686972297e-38,774.0,31.0,-725.0,115.1875,81.0625,-0.6875,-50.25,45.0625,54.8125,212.5,42.5625,-178.8125,0.89434814453125,-0.26116943359375,0.34637451171875,0.10931396484375,101.0,25.0,3.0,663.0,14.0,-721.0,
57,0.9083058834075928,0.02021479606628418,49.468715722929225,62.75419001598809,2.5727748686972297e-38,732.0,59.0,-716.0,116.375,80.6875,3.875,-51.5,48.875,56.625,213.25,43.0625,-178.8125,0.89117431640625,-0.2664794921875,0.34942626953125,0.1126708984375,62.0,45.0,0.0,669.0,14.0,-716.0,
58,0.9226291179656982,0.014323234558105469,69.81663226579666,62.86382997307087,2.5727748686972297e-38,703.0,80.0,-712.0,116.375,80.6875,3.875,-48.75,52.875,51.0,214.6875,44.0625,-178.8125,0.8846435546875,-0.27642822265625,0.3560791015625,0.11932373046875,5.0,86.0,-51.0,682.0,13.0,-704.0,
59,0.9363760948181152,0.013746976852416992,72.74326644582806,63.00887039567189,2.5729183616599765e-38,685.0,100.0,-774.0,116.375,80.6875,3.875,-48.875,53.1875,46.5,215.3125,44.625,-178.8125,0.88140869140625,-0.28082275390625,0.359375,0.122802734375,-3.0,86.0,-77.0,688.0,14.0,-697.0,
60,0.950685977935791,0.014309883117675781,69.88177274241919,63.11232246243604,2.5729183616599765e-38,692.0,85.0,-786.0,116.375,80.6875,3.875,-50.0,52.375,44.125,218.4375,45.125,-178.6875,0.87823486328125,-0.2850341796875,0.362548828125,0.12646484375,-3.0,70.0,-95.0,695.0,15.0,-691.0,
61,0.9660820960998535,0.0153961181640625,64.95143706640238,63.141631799472954,2.5729183616599765e-38,805.0,-10.0,-726.0,120.875,75.0625,11.0,-51.75,49.375,41.75,219.1875,45.625,-178.625,0.87518310546875,-0.2891845703125,0.3653564453125,0.13018798828125,22.0,39.0,-98.0,701.0,16.0,-685.0,
62,0.9813990592956543,0.015316963195800781,65.28709295809725,63.175116597826296,2.5729183616599765e-38,812.0,-49.0,-684.0,120.875,75.0625,11.0,-51.0625,55.25,51.4375,221.3125,47.125,-178.5,0.86505126953125,-0.30267333984375,0.374267578125,0.1412353515625,110.0,-89.0,30.0,718.0,17.0,-666.0,
63,0.9972538948059082,0.015854835510253906,63.07224060150376,63.173481024369885,2.5729183616599765e-38,807.0,-102.0,-646.0,120.875,75.0625,11.0,-45.5625,61.125,53.125,221.75,47.6875,-178.5625,0.8612060546875,-0.3072509765625,0.37823486328125,0.1444091796875,81.0,-118.0,12.0,725.0,16.0,-659.0,
64,1.013253927230835,0.016000032424926758,62.499873340386536,63.16284425850521,2.5729183616599765e-38,790.0,-71.0,-677.0,124.0625,69.875,19.5625,-36.0625,63.75,52.4375,222.0,48.375,-178.75,0.85736083984375,-0.3114013671875,0.382568359375,0.14703369140625,57.0,-85.0,-26.0,733.0,13.0,-651.0,
65,1.0294389724731445,0.01618504524230957,61.78543124401561,63.14118829583721,2.5729183616599765e-38,773.0,6.0,-738.0,124.0625,69.875,19.5625,-22.9375,55.6875,46.1875,222.125,50.125,-179.625,0.84674072265625,-0.32171630859375,0.395263671875,0.15234375,13.0,68.0,-116.0,752.0,3.0,-628.0,
66,1.044889211654663,0.015450239181518555,64.72391710260328,63.16459129239537,2.5729183616599765e-38,769.0,85.0,-709.0,124.0625,69.875,19.5625,-27.125,50.3125,44.9375,222.25,50.5625,-179.875,0.843505859375,-0.3251953125,0.39874267578125,0.1541748046875,11.0,84.0,-87.0,757.0,0.0,-622.0,
67,1.0645298957824707,0.019640684127807617,50.91472341252018,62.93857999239411,2.5729183616599765e-38,812.0,175.0,-654.0,127.0625,65.0625,27.5,-30.1875,46.8125,41.625,222.4375,51.0625,179.8125,0.84039306640625,-0.32855224609375,0.40179443359375,0.15618896484375,29.0,127.0,-38.0,762.0,-1.0,-616.0,
68,1.0803561210632324,0.01582622528076172,63.18626092196445,62.94220829061236,2.5729183616599765e-38,781.0,222.0,-598.0,127.0625,65.0625,27.5,-31.8125,50.375,28.1875,223.625,52.5,179.6875,0.8314208984375,-0.33612060546875,0.41082763671875,0.1644287109375,-30.0,205.0,-25.0,778.0,-2.0,-596.0,
69,1.09507417678833,0.014718055725097656,67.94375688459795,63.00943028568667,2.5729183616599765e-38,755.0,139.0,-629.0,127.0625,65.0625,27.5,-41.3125,52.9375,22.5625,224.1875,53.0,179.8125,0.82830810546875,-0.33837890625,0.4136962890625,0.1680908203125,-27.0,140.0,-40.0,783.0,-1.0,-589.0,
70,1.1137752532958984,0.01870107650756836,53.47285754353757,62.84930446502118,2.5729183616599765e-38,692.0,27.0,-601.0,126.5625,59.5,32.75,-44.5625,52.25,23.875,224.8125,53.5,179.9375,0.8251953125,-0.34088134765625,0.4163818359375,0.171875,-43.0,28.0,-18.0,788.0,0.0,-582.0,
71,1.1284899711608887,0.014714717864990234,67.95916912408049,62.915933516858466,2.5729183616599765e-38,682.0,115.0,-615.0,126.5625,59.5,32.75,-44.1875,46.1875,33.5,226.5,54.875,-179.9375,0.81549072265625,-0.3502197265625,0.42340087890625,0.181884765625,-58.0,144.0,-40.0,802.0,0.0,-564.0,
72,1.1441090106964111,0.015619039535522461,64.02442337927981,62.93106629426343,2.5729183616599765e-38,846.0,125.0,-534.0,126.5625,59.5,32.75,-53.1875,40.375,30.625,227.1875,55.25,-179.875,0.812255859375,-0.3536376953125,0.425048828125,0.1856689453125,40.0,124.0,24.0,805.0,0.0,-558.0,
73,1.1610050201416016,0.01689600944519043,59.18557297472731,62.87655844166512,2.5729183616599765e-38,862.0,101.0,-504.0,127.0,55.25,41.0625,-62.875,42.9375,32.375,228.0,55.6875,-179.6875,0.80877685546875,-0.357421875,0.4266357421875,0.19012451171875,52.0,99.0,47.0,810.0,2.0,-552.0,
74,1.1773319244384766,0.016326904296875,61.248598130841124,62.85398235106381,2.5729183616599765e-38,877.0,-8.0,-477.0,127.0,55.25,41.0625,-77.75,54.0,32.0,231.125,57.25,-178.9375,0.79595947265625,-0.36993408203125,0.4322509765625,0.20684814453125,66.0,-147.0,44.0,819.0,7.0,-538.0,
75,1.1940031051635742,0.016671180725097656,59.98375378982896,62.81390699543052,2.5729183616599765e-38,874.0,-166.0,-495.0,127.0,55.25,41.0625,-72.9375,63.0,44.4375,231.9375,57.875,-178.9375,0.79095458984375,-0.37445068359375,0.43499755859375,0.21209716796875,43.0,-175.0,25.0,830.0,9.0,-521.0,
76,1.2106540203094482,0.016650915145874023,60.056759117398585,62.77598614059373,2.5729183616599765e-38,896.0,-176.0,-524.0,127.5625,49.375,46.5,-63.375,64.75,46.125,232.625,58.5,-179.0,0.78594970703125,-0.37872314453125,0.4381103515625,0.2166748046875,60.0,-185.0,-11.0,836.0,8.0,-512.0,
77,1.2264409065246582,0.01578688621520996,63.34371366004682,62.783293993506305,2.5729183616599765e-38,958.0,-170.0,-607.0,127.5625,49.375,46.5,-49.6875,65.5,43.8125,233.125,59.125,-179.1875,0.7763671875,-0.3858642578125,0.4449462890625,0.22454833984375,111.0,-176.0,-113.0,847.0,5.0,-493.0,
78,1.2419259548187256,0.015485048294067383,64.57842307040909,62.805676697033896,2.5729183616599765e-38,934.0,-110.0,-627.0,127.5625,49.375,46.5,-49.0,63.8125,43.0625,233.9375,60.375,-179.625,0.76708984375,-0.3927001953125,0.45123291015625,0.23193359375,48.0,-68.0,-155.0,857.0,1.0,-475.0,
79,1.2578680515289307,0.015942096710205078,62.72700625130859,62.80467963549595,2.5729183616599765e-38,860.0,14.0,-570.0,125.375,41.1875,55.5625,-55.0,52.9375,38.625,234.875,61.4375,-179.9375,0.76263427734375,-0.39630126953125,0.45355224609375,0.23577880859375,-1.0,14.0,-102.0,861.0,0.0,-468.0,
80,1.273118019104004,0.015249967575073242,65.57390991667057,62.83785069376559,2.5729183616599765e-38,870.0,22.0,-511.0,125.375,41.1875,55.5625,-62.1875,49.75,41.1875,235.5,61.9375,179.8125,0.75299072265625,-0.4051513671875,0.4573974609375,0.244384765625,5.0,9.0,8.0,869.0,-2.0,-453.0,
81,1.2899160385131836,0.016798019409179688,59.53082775065289,62.79478476239765,2.5729183616599765e-38,894.0,-16.0,-386.0,125.375,41.1875,55.5625,-82.0,60.6875,59.25,236.9375,63.0,179.3125,0.73980712890625,-0.41705322265625,0.46240234375,0.2548828125,124.0,-64.0,114.0,879.0,-8.0,-433.0,
82,1.3045990467071533,0.014683008193969727,68.1059348867419,62.854560722676005,2.573635826473711e-38,991.0,-35.0,-336.0,122.75,34.5,61.375,-94.6875,83.5625,74.125,238.4375,64.5,178.25,0.7318115234375,-0.42352294921875,0.4658203125,0.26080322265625,106.0,-22.0,84.0,885.0,-12.0,-421.0,
83,1.3195991516113281,0.015000104904174805,66.66620042915044,62.89788827057888,2.573635826473711e-38,939.0,-30.0,-349.0,122.75,34.5,61.375,-97.0,93.8125,73.4375,239.25,65.375,177.625,0.71478271484375,-0.4356689453125,0.4736328125,0.27392578125,29.0,-86.0,-17.0,897.0,-20.0,-393.0,
84,1.3339900970458984,0.014390945434570312,69.48813783962889,62.96898319261648,2.573635826473711e-38,969.0,-129.0,-401.0,122.75,34.5,61.375,-97.3125,96.0625,68.625,240.0625,66.25,176.9375,0.70654296875,-0.44085693359375,0.47735595703125,0.28021240234375,65.0,-104.0,-21.0,903.0,-24.0,-379.0,
85,1.3490331172943115,0.015043020248413086,66.4760123623108,63.00808994999342,2.573635826473711e-38,965.0,-94.0,-361.0,122.75,34.5,61.375,-78.0625,89.5625,60.9375,241.375,67.9375,175.5,0.69879150390625,-0.44549560546875,0.481201171875,0.2857666015625,55.0,-65.0,5.0,909.0,-28.0,-366.0,
86,1.3626601696014404,0.013627052307128906,73.38344180838408,63.111846899549306,2.573635826473711e-38,883.0,-32.0,-330.0,119.6875,22.75,72.1875,-69.1875,90.375,61.375,241.8125,68.75,174.4375,0.69110107421875,-0.44976806640625,0.4853515625,0.29071044921875,11.0,1.0,22.0,914.0,-34.0,-352.0,
87,1.377243995666504,0.014583826065063477,68.56911180499927,63.16963462810175,2.573635826473711e-38,873.0,-142.0,-211.0,119.6875,22.75,72.1875,-71.5,96.0,60.1875,242.6875,70.5,172.0625,0.66668701171875,-0.46160888671875,0.4984130859375,0.30657958984375,-51.0,-97.0,112.0,924.0,-44.0,-324.0,
88,1.393738031387329,0.016494035720825195,60.627975889333776,63.13955565408849,2.573635826473711e-38,942.0,-146.0,-170.0,119.6875,22.75,72.1875,-70.875,100.1875,64.9375,243.5625,72.1875,169.0,0.6580810546875,-0.46563720703125,0.5029296875,0.31170654296875,9.0,-89.0,123.0,933.0,-57.0,-293.0,
89,1.4102849960327148,0.016546964645385742,60.43404463783986,63.10781171916789,2.573635826473711e-38,981.0,-156.0,-226.0,114.75,11.1875,81.375,-74.625,98.3125,85.625,243.75,72.9375,166.5,0.64849853515625,-0.470947265625,0.5076904296875,0.31610107421875,44.0,-89.0,52.0,937.0,-66.0,-279.0,
90,1.4296488761901855,0.019363880157470703,51.64254229358024,62.95252036978298,2.573635826473711e-38,900.0,-12.0,-186.0,114.75,11.1875,81.375,-33.3125,113.875,92.6875,243.375,74.4375,159.125,0.62841796875,-0.47991943359375,0.52081298828125,0.32177734375,70.0,71.0,117.0,948.0,-103.0,-227.0,
91,1.445739984512329,0.016091108322143555,62.14612318679528,62.943545156701006,2.573635826473711e-38,1061.0,-33.0,-91.0,114.75,11.1875,81.375,-13.5,102.3125,45.375,242.875,75.875,152.4375,0.61376953125,-0.4808349609375,0.53411865234375,0.3267822265625,110.0,76.0,119.0,951.0,-110.0,-211.0,
92,1.4624199867248535,0.016680002212524414,59.952030416946585,62.90942467631175,2.573635826473711e-38,1012.0,-149.0,-147.0,106.5,-3.0,89.6875,-29.9375,104.5,29.5625,243.0625,76.5625,149.75,0.60736083984375,-0.480712890625,0.53912353515625,0.330810546875,89.0,31.0,109.0,954.0,-114.0,-196.0,
93,1.477937936782837,0.015517950057983398,64.44150137508258,62.92551106878116,2.573635826473711e-38,922.0,-264.0,-231.0,106.5,-3.0,89.6875,-29.3125,102.0,17.0625,243.6875,78.0625,144.1875,0.59478759765625,-0.47930908203125,0.54815673828125,0.340576171875,-37.0,-146.0,-67.0,959.0,-118.0,-163.0,
94,1.4965500831604004,0.018612146377563477,53.72835457631461,62.81112878059629,2.573635826473711e-38,889.0,-252.0,-129.0,106.5,-3.0,89.6875,-11.6875,94.5,19.5625,243.9375,79.25,137.125,0.583251953125,-0.477294921875,0.5574951171875,0.34814453125,-73.0,-129.0,4.0,963.0,-123.0,-133.0,
95,1.5135202407836914,0.016970157623291016,58.92697181713451,62.76757815330543,2.573635826473711e-38,1100.0,-97.0,92.0,95.6875,-8.25,97.25,-20.0625,101.3125,24.8125,244.125,80.25,128.0625,0.5712890625,-0.47515869140625,0.567138671875,0.35528564453125,133.0,33.0,194.0,966.0,-130.0,-102.0,
96,1.528764009475708,0.015243768692016602,65.60057556657334,62.79582682805527,2.573635826473711e-38,1113.0,-63.0,125.0,95.6875,-8.25,97.25,-38.1875,117.8125,27.8125,244.375,80.6875,121.875,0.56329345703125,-0.4747314453125,0.5721435546875,0.3604736328125,145.0,71.0,209.0,967.0,-134.0,-83.0,
97,1.5442099571228027,0.015445947647094727,64.74190013120321,62.81529241058126,2.573635826473711e-38,976.0,-118.0,203.0,95.6875,-8.25,97.25,-83.5,158.625,36.125,245.6875,81.25,105.0,0.54168701171875,-0.47564697265625,0.58221435546875,0.3759765625,6.0,24.0,241.0,969.0,-143.0,-38.0,
98,1.5630462169647217,0.018836259841918945,53.08909562685906,62.698082076105294,2.573635826473711e-38,953.0,-268.0,-14.0,87.875,-11.375,104.875,-125.75,168.25,48.5,247.625,80.6875,85.9375,0.51324462890625,-0.48046875,0.59075927734375,0.39593505859375,-14.0,-110.0,231.0,969.0,-150.0,-13.0,
99,1.5781121253967285,0.015065908432006836,66.37502175942777,62.73318505496684,2.573635826473711e-38,986.0,-273.0,-44.0,87.875,-11.375,104.875,-119.25,152.9375,38.3125,248.625,80.125,78.6875,0.5,-0.48291015625,0.59375,0.40533447265625,20.0,-108.0,-77.0,966.0,-164.0,32.0,
100,1.5966651439666748,0.01855301856994629,53.89958492360281,62.63053989615194,2.573635826473711e-38,1048.0,-178.0,189.0,87.875,-11.375,104.875,-85.75,133.5,37.9375,250.125,78.6875,67.6875,0.476806640625,-0.48541259765625,0.59979248046875,0.4210205078125,86.0,-1.0,117.0,961.0,-177.0,72.0,
101,1.6161291599273682,0.01946401596069336,51.37685881574757,62.49500504312361,2.573635826473711e-38,1062.0,-107.0,260.0,69.375,-23.375,110.75,-79.6875,139.25,34.0625,251.1875,76.875,59.875,0.4539794921875,-0.48681640625,0.606689453125,0.43450927734375,107.0,84.0,148.0,955.0,-192.0,111.0,
102,1.6308870315551758,0.014757871627807617,67.76044847251167,62.54265195961193,2.573635826473711e-38,1303.0,-33.0,486.0,69.375,-23.375,110.75,-87.875,158.0,22.5,252.625,74.8125,52.75,0.4296875,-0.4859619140625,0.61309814453125,0.450927734375,263.0,186.0,254.0,951.0,-198.0,132.0,
103,1.646578073501587,0.015691041946411133,63.73063072645222,62.553972786095606,2.573635826473711e-38,1324.0,-141.0,554.0,69.375,-23.375,110.75,-88.125,165.375,12.0,253.5,73.6875,49.4375,0.417236328125,-0.484619140625,0.6158447265625,0.460205078125,383.0,66.0,376.0,941.0,-208.0,178.0,
104,1.6622881889343262,0.015710115432739258,63.65325603630128,62.564361999511775,2.573635826473711e-38,1316.0,-292.0,605.0,54.0,-34.75,115.0625,-66.125,153.375,-1.375,255.125,71.5625,43.75,0.39459228515625,-0.47979736328125,0.6209716796875,0.47802734375,386.0,-78.0,381.0,930.0,-214.0,223.0,
105,1.6771321296691895,0.014843940734863281,67.3675554127851,62.6068740455834,2.573635826473711e-38,1343.0,-204.0,702.0,54.0,-34.75,115.0625,-48.5625,142.0,-14.875,255.875,70.625,41.1875,0.3857421875,-0.47607421875,0.623046875,0.48614501953125,417.0,9.0,458.0,925.0,-213.0,244.0,
106,1.6936900615692139,0.016557931900024414,60.39401575256663,62.58524059696635,2.5715551785138814e-38,1611.0,-126.0,942.0,54.0,-34.75,115.0625,-27.4375,144.75,-41.625,257.5,68.9375,35.625,0.3714599609375,-0.465087890625,0.62664794921875,0.5030517578125,696.0,78.0,656.0,915.0,-205.0,285.0,
107,1.7090771198272705,0.01538705825805664,64.98968049831107,62.60688810275224,2.5715551785138814e-38,1570.0,-94.0,840.0,36.25,-42.25,116.0625,-41.6875,156.0625,-24.375,258.25,67.8125,33.375,0.36236572265625,-0.4598388671875,0.6287841796875,0.51171875,591.0,27.0,540.0,908.0,-203.0,308.0,
108,1.7245409488677979,0.015463829040527344,64.66703669441875,62.625361300295346,2.5715551785138814e-38,1835.0,-91.0,1006.0,36.25,-42.25,116.0625,-40.25,180.1875,-18.1875,259.5625,65.0625,29.625,0.3411865234375,-0.44805908203125,0.6348876953125,0.52886962890625,945.0,112.0,648.0,889.0,-204.0,358.0,
109,1.7411022186279297,0.016561269760131836,60.381843571397724,62.604021081483154,2.5715551785138814e-38,1944.0,-159.0,1408.0,36.25,-42.25,116.0625,-24.0625,178.625,-37.0625,261.125,62.3125,25.75,0.321533203125,-0.43316650390625,0.6396484375,0.54754638671875,1076.0,38.0,999.0,868.0,-198.0,409.0,
110,1.755774974822998,0.01467275619506836,68.15352117253258,62.65039744691044,2.5715551785138814e-38,1803.0,-186.0,1601.0,18.0625,-44.0,112.1875,-10.375,188.375,-37.125,261.75,60.8125,23.875,0.31219482421875,-0.4239501953125,0.642578125,0.55670166015625,947.0,6.0,1164.0,856.0,-193.0,436.0,
111,1.7711601257324219,0.015385150909423828,64.99773748644041,62.67078757438633,2.5715551785138814e-38,1844.0,-78.0,1975.0,18.0625,-44.0,112.1875,-2.125,202.1875,-18.1875,262.75,57.4375,20.75,0.29180908203125,-0.40411376953125,0.650390625,0.57318115234375,1018.0,109.0,1482.0,826.0,-187.0,493.0,
112,1.7871270179748535,0.01596689224243164,62.62959534119755,62.67041954685279,2.5715551785138814e-38,1917.0,-56.0,2054.0,18.0625,-44.0,112.1875,-12.3125,214.5625,-7.875,263.125,55.5,19.6875,0.27960205078125,-0.39410400390625,0.65478515625,0.5811767578125,1109.0,131.0,1531.0,808.0,-187.0,522.0,
113,1.8018529415130615,0.014725923538208008,67.90745567878248,62.71322003953943,2.5715551785138814e-38,2320.0,69.0,2410.0,-0.25,-41.5625,106.75,-5.75,213.8125,-1.875,263.8125,51.5,18.0625,0.25439453125,-0.37384033203125,0.66375732421875,0.59576416015625,1552.0,258.0,1830.0,768.0,-189.0,579.0,
114,1.820626974105835,0.018774032592773438,53.26506146500051,62.615792043830865,2.5715551785138814e-38,2638.0,256.0,2795.0,-0.25,-41.5625,106.75,47.375,208.75,-41.6875,264.5,47.875,15.375,0.23651123046875,-0.3475341796875,0.67138671875,0.61041259765625,1910.0,431.0,2161.0,727.0,-174.0,634.0,
115,1.8368020057678223,0.016175031661987305,61.82368114617573,62.60881664919979,2.5715551785138814e-38,2799.0,204.0,3373.0,-0.25,-41.5625,106.75,51.75,225.3125,-67.0,265.1875,45.875,13.625,0.22833251953125,-0.33154296875,0.67376708984375,0.61962890625,2095.0,365.0,2710.0,704.0,-160.0,662.0,
116,1.8519649505615234,0.015162944793701172,65.95025000786188,62.63617460191583,2.5715551785138814e-38,2712.0,140.0,3679.0,-18.375,-38.0,94.6875,41.8125,286.375,-105.4375,267.1875,41.1875,9.9375,0.2073974609375,-0.29425048828125,0.6754150390625,0.64361572265625,2066.0,268.0,2953.0,646.0,-127.0,726.0,
117,1.8652310371398926,0.01326608657836914,75.38018043923655,62.72681382109394,2.5715551785138814e-38,2737.0,44.0,3782.0,-18.375,-38.0,94.6875,54.1875,317.4375,-107.0,268.25,38.3125,8.1875,0.19482421875,-0.27191162109375,0.67620849609375,0.6563720703125,2129.0,154.0,3020.0,608.0,-109.0,761.0,
118,1.8816030025482178,0.016371965408325195,61.080021552665684,62.71248496106508,2.5715551785138814e-38,3624.0,-679.0,3912.0,-18.375,-38.0,94.6875,99.9375,330.5,-115.5625,270.25,32.1875,4.5,0.17138671875,-0.221435546875,0.67730712890625,0.6802978515625,3101.0,-614.0,3085.0,523.0,-65.0,826.0,
119,1.8964130878448486,0.01481008529663086,67.52155574873628,62.75004151929569,2.5715551785138814e-38,3743.0,-1068.0,3905.0,-18.375,-38.0,94.6875,141.75,360.5,-129.125,271.1875,28.8125,2.25,0.1612548828125,-0.19061279296875,0.6773681640625,0.6920166015625,3270.0,-1034.0,3047.0,472.0,-34.0,858.0,
120,1.9122529029846191,0.015839815139770508,63.13204991194666,62.75320581953652,2.5715551785138814e-38,3252.0,-1580.0,2658.0,-33.6875,-30.25,75.1875,269.9375,440.5625,-107.9375,272.4375,20.625,-3.1875,0.14324951171875,-0.1112060546875,0.680419921875,0.71002197265625,2906.0,-1631.0,1742.0,346.0,51.0,916.0,
121,1.9264261722564697,0.014173269271850586,70.55535182599627,62.810608443026794,2.5715551785138814e-38,2755.0,-1499.0,2064.0,-33.6875,-30.25,75.1875,338.125,436.8125,-111.375,272.75,16.3125,-6.6875,0.13934326171875,-0.06414794921875,0.68145751953125,0.71563720703125,2479.0,-1609.0,1129.0,276.0,109.0,934.0,
122,1.94057297706604,0.014146804809570312,70.68733989483619,62.868029928177336,2.5715551785138814e-38,-33.0,10.0,-84.0,-33.6875,-30.25,75.1875,227.5625,104.4375,-190.125,274.75,11.8125,-12.6875,0.15032958984375,-0.002685546875,0.66912841796875,0.727783203125,-234.0,-201.0,-1021.0,201.0,211.0,936.0,
123,1.9575631618499756,0.016990184783935547,58.857511717324805,62.83322162834331,2.5715551785138814e-38,46.0,-20.0,-80.0,-44.75,-18.5,51.5625,95.875,-54.875,-278.5625,277.4375,11.6875,-14.1875,0.15936279296875,0.0029296875,0.651123046875,0.7420654296875,-152.0,-256.0,-1011.0,199.0,235.0,930.0,
124,1.9719600677490234,0.014396905899047852,69.45936904860478,62.881597872083184,2.5715551785138814e-38,59.0,-27.0,-107.0,-44.75,-18.5,51.5625,65.6875,-65.6875,-287.5625,283.0625,11.4375,-16.6875,0.17510986328125,0.00982666015625,0.61236572265625,0.7708740234375,-136.0,-303.0,-1027.0,195.0,276.0,920.0,
125,1.9862160682678223,0.014256000518798828,70.14590092651437,62.93373716838995,2.5715551785138814e-38,47.0,-18.0,-102.0,-44.75,-18.5,51.5625,57.3125,-62.4375,-288.1875,285.875,11.1875,-17.8125,0.1817626953125,0.01300048828125,0.59246826171875,0.78472900390625,-143.0,-313.0,-1018.0,191.0,294.0,915.0,
126,2.0038399696350098,0.0176239013671875,56.74112554112554,62.879272750982366,2.5715551785138814e-38,27.0,0.0,-95.0,-34.75,-16.25,39.875,41.0,-57.75,-289.0,291.5625,10.5,-19.75,0.1927490234375,0.0185546875,0.551513671875,0.81134033203125,-151.0,-326.0,-1002.0,178.0,326.0,907.0,
127,2.0193300247192383,0.015490055084228516,64.5575496382946,62.892146625541166,2.5715551785138814e-38,0.0,2.0,-114.0,-34.75,-16.25,39.875,25.25,-56.1875,-289.3125,297.3125,9.5625,-21.3125,0.2008056640625,0.02294921875,0.50927734375,0.83648681640625,-162.0,-349.0,-1014.0,162.0,352.0,900.0,
128,2.0316591262817383,0.0123291015625,81.10891089108911,63.00269486361155,2.5715551785138814e-38,-1.0,4.0,-106.0,-34.75,-16.25,39.875,17.625,-57.0625,-288.6875,300.1875,9.0,-22.0,0.20391845703125,0.02459716796875,0.48773193359375,0.84844970703125,-155.0,-358.0,-1004.0,154.0,362.0,897.0,
129,2.047384023666382,0.015724897384643555,63.59341975589417,63.007231915872545,2.5715551785138814e-38,-3.0,4.0,-102.0,-34.75,-16.25,39.875,9.5,-57.6875,-287.9375,303.0625,8.5,-22.5,0.206298828125,0.02581787109375,0.4659423828125,0.86004638671875,-148.0,-367.0,-998.0,145.0,371.0,895.0,
130,2.0637431144714355,0.01635909080505371,61.128091525176714,62.992336152891546,2.5692592911099316e-38,14.0,-3.0,-90.0,-22.75,-17.5625,31.375,-3.9375,-61.0625,-286.5625,308.875,7.375,-23.25,0.20941162109375,0.0269775390625,0.421630859375,0.8818359375,-112.0,-387.0,-983.0,126.0,384.0,893.0,
131,2.0781209468841553,0.014377832412719727,69.55151314153055,63.0377169319311,2.5692592911099316e-38,20.0,-1.0,-88.0,-22.75,-17.5625,31.375,-9.6875,-62.8125,-285.9375,311.75,6.8125,-23.5,0.210205078125,0.0269775390625,0.39910888671875,0.89208984375,-96.0,-390.0,-980.0,117.0,388.0,892.0,
132,2.092864990234375,0.014744043350219727,67.82400025872803,63.07143586229021,2.5692592911099316e-38,22.0,-4.0,-59.0,-22.75,-17.5625,31.375,-21.75,-63.875,-285.0625,317.5625,5.75,-23.75,0.21014404296875,0.02618408203125,0.35345458984375,0.91119384765625,-76.0,-397.0,-951.0,98.0,393.0,892.0,
133,2.1122970581054688,0.01943206787109375,51.46132705143306,62.96462871528518,2.5692592911099316e-38,30.0,-5.0,-52.0,-13.1875,-18.6875,24.375,-26.8125,-63.9375,-284.6875,320.4375,5.1875,-23.75,0.2078857421875,0.02471923828125,0.30712890625,0.9283447265625,-49.0,-397.0,-940.0,80.0,393.0,894.0,
134,2.1287732124328613,0.016476154327392578,60.69377478077157,62.94705289290001,2.5692592911099316e-38,45.0,-12.0,-43.0,-13.1875,-18.6875,24.375,-40.375,-63.0625,-284.625,329.125,3.5625,-23.375,0.20367431640625,0.02374267578125,0.28369140625,0.943603515625,-34.0,-401.0,-944.0,70.0,391.0,896.0,
135,2.144045114517212,0.015271902084350586,65.47972835844196,62.96509298518133,2.5692592911099316e-38,55.0,-12.0,-40.0,-13.1875,-18.6875,24.375,-44.0625,-62.0,-284.6875,332.0625,3.0625,-23.125,0.200927734375,0.021728515625,0.236328125,0.950439453125,2.0,-397.0,-941.0,52.0,384.0,900.0,
136,2.1604020595550537,0.016356945037841797,61.13611054426727,62.95124530107601,2.5692592911099316e-38,64.0,-11.0,-42.0,-5.1875,-16.1875,16.5625,-51.0625,-59.375,-285.125,337.8125,2.0,-22.375,0.19415283203125,0.01971435546875,0.1884765625,0.9625244140625,29.0,-385.0,-948.0,34.0,373.0,905.0,
137,2.1727490425109863,0.012346982955932617,80.99144572962327,63.053761534131375,2.5692592911099316e-38,64.0,-10.0,-46.0,-5.1875,-16.1875,16.5625,-54.0,-57.875,-285.625,340.6875,1.4375,-21.9375,0.19012451171875,0.01885986328125,0.164306640625,0.96771240234375,39.0,-377.0,-955.0,25.0,366.0,909.0,
138,2.1882200241088867,0.01547098159790039,64.63713977500386,63.064956210789646,2.5692592911099316e-38,65.0,-6.0,-39.0,-5.1875,-16.1875,16.5625,-56.875,-56.25,-286.3125,343.5625,0.9375,-21.4375,0.18572998046875,0.01806640625,0.14007568359375,0.972412109375,49.0,-365.0,-952.0,16.0,359.0,912.0,
139,2.2031540870666504,0.014934062957763672,66.96101408090935,63.091365608961574,2.5692592911099316e-38,64.0,-1.0,-35.0,-5.1875,-16.1875,16.5625,-59.5625,-54.5625,-287.1875,346.4375,0.4375,-20.9375,0.1759033203125,0.01678466796875,0.0911865234375,0.98004150390625,60.0,-339.0,-953.0,0.0,341.0,919.0,
140,2.219475030899048,0.01632094383239746,61.27096632824483,63.077979274806204,2.5692592911099316e-38,58.0,2.0,-33.0,1.25,-13.5,10.0,-67.4375,-49.8125,-288.875,355.0625,-1.0,-19.0,0.1646728515625,0.0159912109375,0.0419921875,0.9853515625,75.0,-316.0,-966.0,-17.0,319.0,926.0,
141,2.2353291511535645,0.0158541202545166,63.07508609410951,63.077958754859665,2.5692592911099316e-38,58.0,2.0,-39.0,1.25,-13.5,10.0,-69.875,-47.6875,-289.0,357.9375,-1.4375,-18.25,0.1585693359375,0.0157470703125,0.01739501953125,0.987060546875,77.0,-302.0,-961.0,-25.0,307.0,930.0,
142,2.2520151138305664,0.016685962677001953,59.93061469436744,63.054638988840985,2.5692592911099316e-38,49.0,5.0,-24.0,1.25,-13.5,10.0,-71.8125,-46.5,-289.75,0.8125,-1.875,-17.5,0.1522216796875,0.01568603515625,-0.00732421875,0.98822021484375,82.0,-289.0,-959.0,-32.0,294.0,934.0,
143,2.2702181339263916,0.018203020095825195,54.93593891210101,62.989541781466784,2.5692592911099316e-38,48.0,7.0,-18.0,4.6875,-11.1875,4.5625,-76.5,-42.25,-290.5,9.375,-3.0,-14.9375,0.1318359375,0.0159912109375,-0.08123779296875,0.98779296875,97.0,-246.0,-973.0,-52.0,252.0,946.0,
144,2.2865631580352783,0.01634502410888672,61.18069899060622,62.97661164265916,2.5692592911099316e-38,45.0,6.0,-27.0,4.6875,-11.1875,4.5625,-77.875,-40.5,-291.25,12.25,-3.3125,-14.0,0.12457275390625,0.01641845703125,-0.1058349609375,0.98638916015625,102.0,-231.0,-966.0,-57.0,237.0,949.0,
145,2.300339937210083,0.013776779174804688,72.58590613318566,63.03416188820339,2.5692592911099316e-38,43.0,6.0,-12.0,4.6875,-11.1875,4.5625,-79.0,-38.875,-291.4375,15.0625,-3.625,-13.0625,0.11724853515625,0.01690673828125,-0.13043212890625,0.984375,105.0,-215.0,-965.0,-62.0,221.0,953.0,
146,2.317007064819336,0.01666712760925293,59.998340652581284,63.012324052358494,2.5692592911099316e-38,47.0,6.0,-10.0,8.75,-6.0625,0.5,-79.8125,-37.375,-291.5625,17.875,-3.875,-12.125,0.1097412109375,0.017578125,-0.15484619140625,0.981689453125,114.0,-199.0,-967.0,-67.0,205.0,956.0,
147,2.332900047302246,0.015892982482910156,62.92085208520852,63.01170089562562,2.5692592911099316e-38,47.0,6.0,-17.0,8.75,-6.0625,0.5,-82.5,-31.6875,-291.625,26.375,-4.5,-9.125,0.08648681640625,0.02044677734375,-0.2274169921875,0.9697265625,124.0,-149.0,-979.0,-77.0,155.0,965.0,
148,2.3488681316375732,0.01596808433532715,62.624919746173944,63.00907147853295,2.5692592911099316e-38,44.0,5.0,-6.0,8.75,-6.0625,0.5,-82.875,-30.25,-291.9375,29.1875,-4.625,-8.0625,0.07855224609375,0.021728515625,-0.2513427734375,0.9644775390625,123.0,-132.0,-974.0,-79.0,137.0,967.0,
149,2.3660390377044678,0.01717090606689453,58.23804498750347,62.97444700851592,2.5692592911099316e-38,45.0,4.0,-3.0,9.1875,-1.25,-3.0,-83.5,-28.5,-292.0,32.0,-4.75,-7.0625,0.070556640625,0.0230712890625,-0.27508544921875,0.95855712890625,127.0,-115.0,-973.0,-81.0,120.0,969.0,
150,2.3823742866516113,0.016335248947143555,61.21731007808509,62.962398830631514,2.5692592911099316e-38,45.0,5.0,-12.0,9.1875,-1.25,-3.0,-85.0,-22.1875,-292.5,40.4375,-4.875,-3.875,0.0465087890625,0.02825927734375,-0.3450927734375,0.93701171875,128.0,-60.0,-979.0,-83.0,66.0,974.0,
151,2.395095109939575,0.012720823287963867,78.61126417392934,63.04551304595562,2.5692592911099316e-38,44.0,5.0,-5.0,9.1875,-1.25,-3.0,-85.5625,-19.8125,-292.625,43.1875,-4.8125,-2.8125,0.0384521484375,0.03033447265625,-0.3680419921875,0.92852783203125,129.0,-42.0,-980.0,-83.0,48.0,975.0,
152,2.4103951454162598,0.01530003547668457,65.35932557306032,63.060200021167304,2.5692592911099316e-38,44.0,4.0,0.0,8.25,4.0,-3.1875,-86.0,-17.3125,-292.75,46.0,-4.75,-1.6875,0.0303955078125,0.0325927734375,-0.39068603515625,0.91943359375,126.0,-25.0,-977.0,-82.0,29.0,976.0,
153,2.427877187728882,0.01748204231262207,57.20155472212751,63.01801457392553,2.5692592911099316e-38,44.0,5.0,249.0,8.25,4.0,-3.1875,-86.3125,-13.125,-292.875,51.625,-4.5625,0.375,0.014404296875,0.03753662109375,-0.43524169921875,0.8994140625,122.0,12.0,-984.0,-78.0,-6.0,977.0,
154,2.444208860397339,0.01633167266845703,61.230715328467156,63.006072228608666,2.5656002205598866e-38,45.0,4.0,-3.0,8.25,4.0,-3.1875,-86.625,-8.25,-293.0,57.1875,-4.25,2.5,-0.0013427734375,0.04315185546875,-0.4786376953125,0.876953125,118.0,47.0,-977.0,-72.0,-42.0,977.0,
155,2.4634900093078613,0.01928114891052246,51.86412929232976,62.918866897921205,2.5656002205598866e-38,44.0,5.0,1.0,5.75,7.0625,-5.0,-86.3125,-5.9375,-293.125,60.0,-4.0,3.5,-0.009033203125,0.046142578125,-0.4998779296875,0.86480712890625,114.0,66.0,-975.0,-69.0,-60.0,976.0,
156,2.482262134552002,0.018772125244140625,53.2704734809998,62.84590085331775,2.5656002205598866e-38,41.0,5.0,-9.0,5.75,7.0625,-5.0,-86.3125,1.125,-293.4375,68.4375,-3.25,6.5625,-0.031494140625,0.0560302734375,-0.56158447265625,0.824951171875,97.0,120.0,-977.0,-55.0,-112.0,972.0,
157,2.498940944671631,0.016678810119628906,59.95631539825033,62.8266147444434,2.5656002205598866e-38,39.0,5.0,-1.0,5.75,7.0625,-5.0,-86.25,3.0625,-293.5,71.25,-2.9375,7.5625,-0.03875732421875,0.05950927734375,-0.5814208984375,0.81048583984375,89.0,134.0,-972.0,-50.0,-129.0,970.0,
158,2.5166821479797363,0.01774120330810547,56.36596247917003,62.781070754935946,2.5656002205598866e-38,39.0,7.0,2.0,1.75,9.75,-6.1875,-85.8125,5.375,-293.5,74.125,-2.5625,8.5625,-0.0457763671875,0.0631103515625,-0.60089111328125,0.7955322265625,84.0,153.0,-966.0,-44.0,-145.0,968.0,
159,2.532823085784912,0.01614093780517578,61.95426883308715,62.77580178906436,2.5656002205598866e-38,36.0,8.0,0.0,1.75,9.75,-6.1875,-84.375,12.1875,-293.125,82.625,-1.375,11.3125,-0.06597900390625,0.074462890625,-0.65692138671875,0.74737548828125,56.0,197.0,-957.0,-24.0,-192.0,961.0,
160,2.5486831665039062,0.01586008071899414,63.051381497850336,62.77751668108519,2.5656002205598866e-38,31.0,1.0,8.0,1.75,9.75,-6.1875,-83.625,14.6875,-292.8125,85.4375,-0.9375,12.1875,-0.072265625,0.078369140625,-0.67474365234375,0.7303466796875,47.0,209.0,-949.0,-16.0,-207.0,958.0,
161,2.566437244415283,0.017754077911376953,56.325087959605725,62.732880124127476,2.5656002205598866e-38,30.0,2.0,11.0,-0.375,11.0625,-4.1875,-82.5625,16.5,-292.25,88.25,-0.5,13.0,-0.07830810546875,0.082275390625,-0.69207763671875,0.71282958984375,39.0,223.0,-944.0,-8.0,-221.0,955.0,
162,2.5828280448913574,0.01639080047607422,61.00983301332403,62.721945551282055,2.5656002205598866e-38,30.0,1.0,9.0,-0.375,11.0625,-4.1875,-79.1875,24.0625,-291.1875,96.8125,0.9375,15.3125,-0.0948486328125,0.09423828125,-0.74139404296875,0.6575927734375,15.0,261.0,-931.0,16.0,-259.0,945.0,
163,2.5992350578308105,0.016407012939453125,60.9495466170658,62.710757731942685,2.5656002205598866e-38,32.0,1.0,14.0,-0.375,11.0625,-4.1875,-77.9375,26.625,-290.8125,99.6875,1.4375,16.0,-0.09979248046875,0.0982666015625,-0.75689697265625,0.6383056640625,7.0,272.0,-927.0,25.0,-270.0,942.0,
164,2.612868070602417,0.013633012771606445,73.35135796855599,62.76627658517352,2.5656002205598866e-38,36.0,0.0,19.0,-4.25,12.5625,-3.0625,-76.25,28.875,-290.375,102.5625,1.9375,16.6875,-0.10443115234375,0.1021728515625,-0.77191162109375,0.61865234375,1.0,280.0,-919.0,34.0,-281.0,938.0,
165,2.630280017852783,0.01741194725036621,57.43183031863181,62.73096357805166,2.5656002205598866e-38,37.0,-1.0,8.0,-4.25,12.5625,-3.0625,-73.6875,33.9375,-289.8125,111.1875,3.5625,18.375,-0.11651611328125,0.1138916015625,-0.8140869140625,0.55743408203125,-22.0,306.0,-919.0,61.0,-309.0,928.0,
166,2.647825002670288,0.017544984817504883,56.99634456236666,62.692964917466874,2.5656002205598866e-38,39.0,-3.0,16.0,-4.25,12.5625,-3.0625,-70.25,38.75,-289.375,114.0625,4.125,18.875,-0.119873046875,0.11767578125,-0.8271484375,0.53631591796875,-31.0,313.0,-909.0,70.0,-317.0,925.0,
167,2.663072109222412,0.015247106552124023,65.58621444543479,62.709529877792974,2.5656002205598866e-38,40.0,0.0,21.0,-7.0,12.1875,-2.0,-68.5,41.125,-288.75,116.9375,4.625,19.3125,-0.1229248046875,0.12139892578125,-0.83966064453125,0.514892578125,-39.0,323.0,-900.0,79.0,-324.0,922.0,
168,2.678952932357788,0.015880823135375977,62.96902820940113,62.71106818294885,2.5656002205598866e-38,42.0,-4.0,15.0,-7.0,12.1875,-2.0,-64.75,45.0625,-288.6875,125.625,6.25,20.4375,-0.1302490234375,0.13165283203125,-0.87432861328125,0.44866943359375,-64.0,337.0,-900.0,98.0,-335.0,916.0,
169,2.6949539184570312,0.016000986099243164,62.49614828721708,62.70979212021527,2.5656002205598866e-38,43.0,-4.0,22.0,-7.0,12.1875,-2.0,-60.375,50.125,-288.0625,128.5625,6.8125,20.6875,-0.13201904296875,0.13482666015625,-0.88482666015625,0.426025390625,-72.0,339.0,-888.0,116.0,-344.0,910.0,
170,2.711153030395508,0.016199111938476562,61.731779112210056,62.70394850238317,2.5656002205598866e-38,44.0,-4.0,25.0,-9.5625,10.375,-1.0625,-58.5,52.4375,-287.9375,131.4375,7.3125,20.875,-0.1334228515625,0.1378173828125,-0.89483642578125,0.40313720703125,-80.0,342.0,-882.0,125.0,-347.0,908.0,
171,2.7276759147644043,0.016522884368896484,60.52212057372082,62.6907320896917,2.5656002205598866e-38,47.0,-6.0,26.0,-9.5625,10.375,-1.0625,-55.4375,54.5,-287.625,137.3125,8.3125,21.1875,-0.13519287109375,0.14312744140625,-0.91326904296875,0.356689453125,-94.0,344.0,-878.0,142.0,-350.0,904.0,
172,2.7440719604492188,0.016396045684814453,60.99031554456885,62.680571967158876,2.5656002205598866e-38,47.0,-5.0,31.0,-9.5625,10.375,-1.0625,-49.0,59.25,-287.4375,143.125,9.1875,21.1875,-0.13519287109375,0.1470947265625,-0.9296875,0.30938720703125,-109.0,347.0,-863.0,157.0,-350.0,902.0,
173,2.7606148719787598,0.016542911529541016,60.448851353298934,62.66719844046796,2.5656002205598866e-38,46.0,0.0,44.0,-11.375,7.6875,0.875,-38.1875,66.875,-286.9375,146.0625,9.625,21.0625,-0.13446044921875,0.14849853515625,-0.93719482421875,0.2855224609375,-117.0,348.0,-857.0,163.0,-348.0,901.0,
174,2.7760510444641113,0.015436172485351562,64.78289880143333,62.67896274709493,2.5656002205598866e-38,49.0,0.0,52.0,-11.375,7.6875,0.875,-38.1875,66.875,-286.9375,151.9375,10.3125,20.75,-0.132080078125,0.1505126953125,-0.9505615234375,0.23724365234375,-127.0,341.0,-859.0,176.0,-342.0,902.0,
175,2.7923641204833984,0.01631307601928711,61.3005173774517,62.67090982737057,2.5656002205598866e-38,52.0,3.0,56.0,-11.375,7.6875,0.875,-24.1875,75.4375,-287.125,157.8125,10.875,20.0625,-0.12774658203125,0.15045166015625,-0.9620361328125,0.18841552734375,-130.0,330.0,-845.0,185.0,-331.0,904.0,
176,2.808181047439575,0.015816926956176758,63.22340633997076,62.674021733916376,2.5656002205598866e-38,55.0,-2.0,62.0,-13.75,6.0,2.5625,-14.3125,82.125,-287.0,160.75,11.0625,19.6875,-0.1248779296875,0.1497802734375,-0.967041015625,0.16387939453125,-133.0,321.0,-843.0,188.0,-324.0,906.0,
177,2.826206922531128,0.018025875091552734,55.47580879824353,62.62811069809433,2.5633760796373103e-38,58.0,-17.0,56.0,-13.75,6.0,2.5625,-8.875,85.25,-286.625,166.5625,11.3125,18.625,-0.11798095703125,0.14697265625,-0.97540283203125,0.114501953125,-134.0,290.0,-854.0,192.0,-307.0,911.0,
178,2.8384058475494385,0.012198925018310547,81.9744361490052,62.71125750169864,2.5633760796373103e-38,60.0,-22.0,64.0,-13.75,6.0,2.5625,1.8125,92.0,-286.5625,166.5625,11.3125,18.625,-0.1138916015625,0.144775390625,-0.978759765625,0.08978271484375,-133.0,275.0,-849.0,193.0,-298.0,914.0,
179,2.8561620712280273,0.017756223678588867,56.31828130245049,62.67151356821907,2.5633760796373103e-38,66.0,-27.0,73.0,-15.5625,4.0,3.375,13.0,98.3125,-286.0625,175.3125,11.1875,16.6875,-0.1046142578125,0.13885498046875,-0.98394775390625,0.0401611328125,-124.0,248.0,-847.0,190.0,-276.0,921.0,
180,2.8711140155792236,0.014951944351196289,66.88093377768564,62.69343503019558,2.5633760796373103e-38,65.0,-24.0,73.0,-15.5625,4.0,3.375,18.3125,101.25,-285.5,178.1875,11.0,15.875,-0.093994140625,0.13079833984375,-0.98687744140625,-0.00933837890625,-119.0,228.0,-863.0,184.0,-251.0,929.0,
181,2.8865489959716797,0.015434980392456055,64.78790219187816,62.704634583578645,2.5633760796373103e-38,64.0,-21.0,71.0,-15.5625,4.0,3.375,24.0625,103.875,-285.375,181.0625,10.8125,15.125,-0.08819580078125,0.12591552734375,-0.987548828125,-0.0340576171875,-114.0,216.0,-863.0,179.0,-238.0,934.0,
182,2.901170015335083,0.01462101936340332,68.39468406033428,62.73331071187813,2.5633760796373103e-38,70.0,-15.0,89.0,-15.5625,4.0,3.375,35.6875,110.75,-285.5625,186.75,10.125,13.375,-0.08203125,0.1204833984375,-0.987548828125,-0.05877685546875,-102.0,208.0,-849.0,172.0,-223.0,938.0,
183,2.9169442653656006,0.015774250030517578,63.394456032163475,62.73688605327649,2.5633760796373103e-38,73.0,-11.0,99.0,-16.25,2.6875,8.0,42.3125,113.5625,-285.625,189.625,9.6875,12.4375,-0.07568359375,0.1143798828125,-0.987060546875,-0.08343505859375,-95.0,194.0,-845.0,165.0,-209.0,943.0,
184,2.932838201522827,0.015893936157226562,62.91707668306732,62.73786256073079,2.5633760796373103e-38,73.0,-7.0,91.0,-16.25,2.6875,8.0,55.6875,119.625,-286.375,195.3125,8.5625,10.5,-0.05511474609375,0.092041015625,-0.98175048828125,-0.1571044921875,-62.0,158.0,-862.0,134.0,-160.0,958.0,
185,2.948446035385132,0.015607833862304688,64.07038983257974,62.7449163999486,2.5633760796373103e-38,74.0,1.0,98.0,-16.25,2.6875,8.0,68.9375,125.0,-286.9375,201.0,7.0625,8.4375,-0.0478515625,0.08331298828125,-0.97869873046875,-0.18145751953125,-47.0,144.0,-863.0,121.0,-142.0,962.0,
186,2.96333909034729,0.014893054962158203,67.14539109275447,62.767032165124796,2.5633760796373103e-38,72.0,3.0,101.0,-17.0,1.5625,9.6875,75.375,128.4375,-287.5,203.8125,6.25,7.3125,-0.0404052734375,0.07391357421875,-0.9749755859375,-0.20574951171875,-34.0,128.0,-865.0,107.0,-125.0,966.0,
187,2.9795610904693604,0.016222000122070312,61.64467960023516,62.76092159954422,2.5633760796373103e-38,72.0,6.0,101.0,-17.0,1.5625,9.6875,89.5,133.6875,-288.4375,209.4375,4.3125,5.125,-0.01739501953125,0.0416259765625,-0.9595947265625,-0.27777099609375,15.0,77.0,-867.0,55.0,-68.0,976.0,
188,2.992396116256714,0.012835025787353516,77.91180294980867,62.82590696420745,2.5633760796373103e-38,70.0,8.0,109.0,-17.0,1.5625,9.6875,96.6875,136.625,-288.875,212.25,3.1875,4.0,-0.00958251953125,0.029541015625,-0.95294189453125,-0.30145263671875,28.0,62.0,-859.0,35.0,-49.0,978.0,
189,3.008359909057617,0.01596379280090332,62.64175515629434,62.824929766865935,2.5633760796373103e-38,50.0,22.0,119.0,-21.25,2.1875,13.0,110.625,141.3125,-289.875,217.875,0.75,1.75,-0.001708984375,0.01678466796875,-0.945556640625,-0.324951171875,36.0,52.0,-861.0,13.0,-30.0,980.0,
190,3.0229740142822266,0.014614105224609375,68.4270425476377,62.852012323735934,2.5633760796373103e-38,44.0,20.0,110.0,-21.25,2.1875,13.0,117.125,144.0,-290.1875,220.6875,-0.5,0.5625,0.00616455078125,0.00341796875,-0.93743896484375,-0.34814453125,73.0,5.0,-878.0,-33.0,8.0,980.0,
191,3.0385830402374268,0.015609025955200195,64.06549664726818,62.85824592276924,2.5633760796373103e-38,41.0,12.0,104.0,-21.25,2.1875,13.0,129.9375,146.0625,-290.0,226.375,-3.375,-1.625,0.0216064453125,-0.02484130859375,-0.91864013671875,-0.3936767578125,99.0,-15.0,-873.0,-58.0,28.0,978.0,
192,3.0529470443725586,0.014364004135131836,69.61847062924295,62.890052532653684,2.5633760796373103e-38,46.0,12.0,130.0,-27.25,2.5,16.75,142.5625,146.625,-290.0625,232.0,-6.5,-3.875,0.03619384765625,-0.05511474609375,-0.8966064453125,-0.4378662109375,157.0,-52.0,-841.0,-111.0,65.0,972.0,
193,3.0699620246887207,0.01701498031616211,58.771740044278786,62.86722716694493,2.5633760796373103e-38,42.0,12.0,133.0,-27.25,2.5,16.75,149.0625,146.4375,-290.0625,234.875,-8.125,-4.9375,0.0430908203125,-0.0709228515625,-0.88433837890625,-0.45941162109375,181.0,-71.0,-833.0,-166.0,101.0,960.0,
194,3.088120222091675,0.0181581974029541,55.07154580428303,62.82138843305721,2.5633760796373103e-38,21.0,11.0,138.0,-27.25,2.5,16.75,162.3125,143.125,-289.0625,240.5625,-11.4375,-7.125,0.05572509765625,-0.10357666015625,-0.8572998046875,-0.50115966796875,217.0,-108.0,-814.0,-195.0,119.0,960.0,
195,3.1047658920288086,0.01664566993713379,60.07568357276881,62.80666780727139,2.5633760796373103e-38,-2.0,21.0,147.0,-37.25,1.1875,19.0,176.0625,140.0,-287.5625,246.375,-14.9375,-9.25,0.06640625,-0.13751220703125,-0.8270263671875,-0.54107666015625,251.0,-131.0,-787.0,-253.0,152.0,934.0,
196,3.121137857437134,0.016371965408325195,61.080021552665684,62.797610663997354,2.5633760796373103e-38,-12.0,21.0,142.0,-37.25,1.1875,19.0,182.875,137.6875,-286.1875,249.25,-16.75,-10.3125,0.07098388671875,-0.1549072265625,-0.81060791015625,-0.56024169921875,270.0,-147.0,-781.0,-283.0,168.0,923.0,
197,3.1365392208099365,0.015401363372802734,64.92931669711136,62.80807799021542,2.5633760796373103e-38,-23.0,10.0,134.0,-37.25,1.1875,19.0,196.0,133.0625,-282.875,255.125,-20.375,-12.375,0.078369140625,-0.19024658203125,-0.77557373046875,-0.59674072265625,318.0,-187.0,-762.0,-341.0,197.0,897.0,
198,3.1518959999084473,0.015356779098510742,65.11782149011815,62.81933160413646,2.5633760796373103e-38,-18.0,1.0,136.0,-37.25,1.1875,19.0,202.625,129.5625,-281.4375,258.0625,-22.1875,-13.4375,0.0811767578125,-0.20806884765625,-0.75689697265625,-0.6141357421875,352.0,-209.0,-746.0,-371.0,211.0,882.0,
199,3.170746088027954,0.018850088119506836,53.05014988047506,62.76125381069793,2.5633760796373103e-38,-11.0,-29.0,105.0,-50.1875,-1.1875,19.0,214.875,119.9375,-276.6875,264.0625,-25.875,-15.4375,0.08447265625,-0.24365234375,-0.71746826171875,-0.6470947265625,416.0,-264.0,-745.0,-428.0,235.0,850.0,
200,3.186904191970825,0.016158103942871094,61.8884495071711,62.75682855602799,2.5633760796373103e-38,-2834.0,2467.0,3912.0,-50.1875,-1.1875,19.0,969.875,-112.75,705.6875,260.75,-21.9375,-30.875,-0.01275634765625,-0.3193359375,-0.7216796875,-0.61407470703125,-2468.0,2000.0,3132.0,-366.0,467.0,780.0,
201,3.202010154724121,0.015105962753295898,66.19902460581764,62.77306763173515,2.567680868519716e-38,-93.0,3922.0,3899.0,-50.1875,-1.1875,19.0,1107.4375,584.625,670.6875,254.8125,-22.375,-45.0625,-0.05230712890625,-0.4134521484375,-0.7220458984375,-0.55224609375,280.0,3280.0,3259.0,-373.0,642.0,640.0,
202,3.2171361446380615,0.01512598991394043,66.11137556546822,62.78876333433059,2.567680868519716e-38,-1407.0,3481.0,440.0,-67.5,-7.75,18.0625,-287.4375,89.75,-29.5625,252.1875,-24.4375,-46.75,-0.03106689453125,-0.432861328125,-0.72796630859375,-0.53082275390625,-1001.0,2831.0,-170.0,-406.0,650.0,611.0,
203,3.232567071914673,0.015430927276611328,64.80491950186953,62.798387623172076,2.567680868519716e-38,-1132.0,-751.0,1870.0,-67.5,-7.75,18.0625,-496.8125,84.0625,-169.875,252.3125,-27.5625,-36.1875,0.00384521484375,-0.403564453125,-0.7391357421875,-0.54638671875,-884.0,-1953.0,916.0,-428.0,583.0,661.0,
204,3.2454631328582764,0.012896060943603516,77.54305786651877,62.856976538919234,2.567680868519716e-38,-604.0,-752.0,1861.0,-67.5,-7.75,18.0625,-520.375,121.9375,-164.6875,252.1875,-29.4375,-30.8125,0.07196044921875,-0.34783935546875,-0.75531005859375,-0.55072021484375,-122.0,-1190.0,1128.0,-482.0,437.0,733.0,
205,3.260932207107544,0.015469074249267578,64.64510958355167,62.86545900990551,2.567680868519716e-38,-872.0,-439.0,1013.0,-83.5,24.25,3.1875,-525.9375,119.125,-133.9375,251.75,-31.0625,-25.375,0.10784912109375,-0.31866455078125,-0.762939453125,-0.552001953125,-365.0,-799.0,254.0,-506.0,360.0,758.0,
206,3.2762949466705322,0.015362739562988281,65.09255695573903,62.875902003067,2.567680868519716e-38,-1131.0,373.0,1363.0,-83.5,24.25,3.1875,-493.75,-152.375,-173.0625,252.0,-30.625,-13.25,0.1546630859375,-0.2396240234375,-0.775390625,-0.56341552734375,-631.0,179.0,542.0,-499.0,193.0,821.0,
207,3.2916412353515625,0.015346288681030273,65.16233473674399,62.8865618090033,2.567680868519716e-38,-893.0,-593.0,3215.0,-83.5,24.25,3.1875,-358.75,-276.875,-199.6875,253.1875,-28.375,-8.375,0.157470703125,-0.20013427734375,-0.776123046875,-0.576904296875,-452.0,171.0,1148.0,-466.0,126.0,853.0,
208,3.3073222637176514,0.015681028366088867,63.77132778884311,62.89075675564621,2.567680868519716e-38,-995.0,-644.0,3251.0,-101.75,11.875,4.875,-228.875,-331.5625,-81.0,254.8125,-22.125,-2.0,0.1422119140625,-0.13006591796875,-0.7794189453125,-0.59613037109375,-626.0,-677.0,2343.0,-369.0,32.0,907.0,
209,3.3255300521850586,0.018207788467407227,54.92155193861384,62.847124133692716,2.567680868519716e-38,-1026.0,219.0,2511.0,-101.75,11.875,4.875,-177.0625,-254.25,28.0,253.875,-16.875,1.3125,0.12445068359375,-0.07940673828125,-0.79034423828125,-0.5946044921875,-740.0,241.0,1573.0,-285.0,-22.0,937.0,
210,3.3391849994659424,0.013654947280883789,73.2335306339811,62.88959732197727,2.567680868519716e-38,-657.0,17.0,2411.0,-101.75,11.875,4.875,-195.1875,-226.5625,7.875,253.5,-14.6875,3.125,0.1190185546875,-0.0550537109375,-0.794189453125,-0.59332275390625,-408.0,69.0,1464.0,-249.0,-52.0,946.0,
211,3.3559601306915283,0.016775131225585938,59.61205230244457,62.87321415720198,2.567680868519716e-38,-548.0,-141.0,2308.0,-114.5,-4.1875,31.875,-228.0625,-180.3125,-27.0,253.25,-11.0625,7.5,0.11639404296875,-0.005859375,-0.796875,-0.59283447265625,-359.0,-15.0,1354.0,-188.0,-126.0,954.0,
212,3.370875120162964,0.014914989471435547,67.04664471370567,62.89168018474411,2.567680868519716e-38,-582.0,101.0,2226.0,-114.5,-4.1875,31.875,-222.375,-200.75,-24.4375,253.1875,-9.125,9.625,0.11395263671875,0.01934814453125,-0.7974853515625,-0.59222412109375,-426.0,264.0,1271.0,-155.0,-162.0,954.0,
213,3.3862111568450928,0.015336036682128906,65.20589515577389,62.90216118667877,2.567680868519716e-38,-484.0,4.0,2753.0,-114.5,-4.1875,31.875,-158.0,-251.5625,12.0625,252.5,-4.5,13.0,0.0989990234375,0.06805419921875,-0.800537109375,-0.587158203125,-407.0,225.0,1801.0,-77.0,-220.0,952.0,
214,3.4048099517822266,0.01859879493713379,53.76692432924406,62.852259900140105,2.567680868519716e-38,250.0,-333.0,2528.0,-120.5,-18.0,51.0625,-57.75,-180.0625,71.6875,250.8125,-0.875,14.5,0.0797119140625,0.0982666015625,-0.8082275390625,-0.57513427734375,266.0,-88.0,1578.0,-15.0,-245.0,949.0,
215,3.4218220710754395,0.01701211929321289,58.781624015472154,62.83202210231462,2.567680868519716e-38,95.0,189.0,1710.0,-120.5,-18.0,51.0625,-58.125,-98.6875,62.375,249.125,0.75,15.4375,0.0706787109375,0.11480712890625,-0.815673828125,-0.56256103515625,81.0,451.0,1277.0,0.0,-252.0,947.0,
216,3.437864065170288,0.016041994094848633,62.33638998290852,62.829709350157465,2.567680868519716e-38,185.0,191.0,1651.0,-120.5,-18.0,51.0625,-71.5,-100.75,24.125,248.8125,1.625,16.125,0.06732177734375,0.1243896484375,-0.81671142578125,-0.5594482421875,156.0,464.0,709.0,28.0,-273.0,941.0,
217,3.4540789127349854,0.016214847564697266,61.671871783561244,62.82427399094265,2.567680868519716e-38,169.0,-307.0,1735.0,-116.0,-21.6875,70.1875,-71.0,-93.5,-14.125,248.75,3.5,17.5625,0.06048583984375,0.1435546875,-0.81512451171875,-0.55792236328125,109.0,-12.0,802.0,60.0,-295.0,933.0,
218,3.4698801040649414,0.015801191329956055,63.28636740852509,62.826378278781,2.567680868519716e-38,148.0,-265.0,1649.0,-116.0,-21.6875,70.1875,-68.3125,-87.5625,-7.3125,248.6875,4.3125,18.25,0.0576171875,0.15240478515625,-0.81439208984375,-0.5570068359375,73.0,40.0,720.0,74.0,-306.0,928.0,
219,3.484961986541748,0.01508188247680664,66.30472035157608,62.84143151223336,2.567680868519716e-38,270.0,-254.0,1681.0,-116.0,-21.6875,70.1875,-39.5,-61.5,1.0625,248.5,5.625,19.25,0.052490234375,0.1658935546875,-0.81365966796875,-0.5546875,173.0,67.0,760.0,96.0,-321.0,921.0,
220,3.501051902770996,0.016089916229248047,62.15072755830839,62.8382572180308,2.567680868519716e-38,628.0,-21.0,1563.0,-114.75,-26.1875,77.6875,-7.8125,-16.625,4.125,248.375,5.9375,19.5,0.05133056640625,0.16961669921875,-0.813720703125,-0.55352783203125,360.0,40.0,712.0,102.0,-326.0,919.0,
221,3.5175302028656006,0.016478300094604492,60.6858713737973,62.82817410351148,2.567680868519716e-38,605.0,295.0,1221.0,-114.75,-26.1875,77.6875,5.125,-15.25,-17.4375,248.5,6.3125,19.5625,0.049072265625,0.17138671875,-0.813232421875,-0.55401611328125,498.0,622.0,302.0,107.0,-326.0,918.0,
222,3.5327060222625732,0.015175819396972656,65.89430025765098,62.84134558635503,2.567680868519716e-38,192.0,-275.0,1476.0,-114.75,-26.1875,77.6875,43.25,23.5625,-12.4375,249.0,6.375,19.0625,0.0465087890625,0.16802978515625,-0.81134033203125,-0.5579833984375,82.0,42.0,554.0,109.0,-318.0,921.0,
223,3.548985242843628,0.016279220581054688,61.42800234329233,62.834862570834765,2.567680868519716e-38,37.0,45.0,900.0,-114.75,-26.1875,77.6875,41.875,17.5,-0.6875,249.0,6.25,18.625,0.0457763671875,0.164306640625,-0.81182861328125,-0.5584716796875,-69.0,356.0,-22.0,107.0,-311.0,923.0,
224,3.563577175140381,0.01459193229675293,68.53101972125549,62.85818686982019,2.567680868519716e-38,-200.0,-928.0,2327.0,-114.0625,-31.375,81.0,25.4375,-19.5,-21.75,249.3125,6.6875,18.0625,0.0400390625,0.162353515625,-0.81072998046875,-0.56109619140625,-315.0,-626.0,1402.0,114.0,-302.0,925.0,
225,3.5795300006866455,0.01595282554626465,62.684820134208124,62.857414229476845,2.573348840548217e-38,-331.0,-123.0,1415.0,-114.0625,-31.375,81.0,8.9375,26.0,6.0625,249.3125,6.4375,17.9375,0.04144287109375,0.16046142578125,-0.81103515625,-0.56103515625,-441.0,177.0,488.0,110.0,-300.0,926.0,
226,3.5954339504241943,0.015903949737548828,62.87746229724463,62.85750290958236,2.573348840548217e-38,145.0,-340.0,1084.0,-114.0625,-31.375,81.0,-14.5,-9.6875,-5.25,249.4375,6.5,18.25,0.04266357421875,0.16278076171875,-0.81005859375,-0.56170654296875,34.0,-35.0,159.0,111.0,-305.0,925.0,
227,3.6113181114196777,0.0158841609954834,62.9557960464104,62.85793524590997,2.573348840548217e-38,78.0,-314.0,953.0,-115.1875,-30.25,81.375,-17.0,-13.0625,-1.9375,249.4375,6.75,18.625,0.04241943359375,0.16650390625,-0.8094482421875,-0.56146240234375,-37.0,-3.0,30.0,115.0,-311.0,922.0,
228,3.6270599365234375,0.015741825103759766,63.5250355920395,62.86083053221878,2.573348840548217e-38,324.0,-405.0,810.0,-115.1875,-30.25,81.375,-18.3125,-18.0625,1.625,249.4375,6.9375,18.8125,0.0421142578125,0.16864013671875,-0.809326171875,-0.56103515625,205.0,-91.0,-110.0,118.0,-313.0,921.0,
229,3.6439571380615234,0.016897201538085938,59.181397448922,62.84376882704531,2.573348840548217e-38,171.0,-319.0,919.0,-115.1875,-29.1875,83.0625,0.4375,-28.625,21.875,248.8125,7.4375,19.0625,0.03857421875,0.17303466796875,-0.81182861328125,-0.55633544921875,44.0,-1.0,0.0,127.0,-317.0,919.0,
230,3.6651930809020996,0.021235942840576172,47.089974177613115,62.7524921397568,2.573348840548217e-38,159.0,-328.0,943.0,-115.1875,-29.1875,83.0625,4.375,-29.875,23.625,248.5,7.625,19.0625,0.03668212890625,0.174072265625,-0.8131103515625,-0.55426025390625,28.0,-10.0,24.0,130.0,-317.0,918.0,
231,3.6803910732269287,0.015197992324829102,65.79816456192643,62.76506909290528,2.573348840548217e-38,90.0,-342.0,922.0,-115.1875,-29.1875,83.0625,5.875,-25.875,13.875,248.125,8.0,19.0,0.0347900390625,0.175048828125,-0.81414794921875,-0.552490234375,-1.0,-18.0,13.0,134.0,-317.0,918.0,
232,3.6947309970855713,0.014339923858642578,69.73537724869485,62.7921221282424,2.573348840548217e-38,103.0,-363.0,920.0,-115.1875,-29.1875,83.0625,7.3125,-23.75,9.4375,248.0,8.1875,18.9375,0.0311279296875,0.1763916015625,-0.81561279296875,-0.5501708984375,-36.0,-47.0,2.0,140.0,-315.0,917.0,
233,3.709990978240967,0.015259981155395508,65.53088039996875,62.803387222918055,2.573348840548217e-38,165.0,-359.0,911.0,-113.6875,-28.75,84.6875,7.3125,-17.5,3.5,247.8125,8.5,18.8125,0.02789306640625,0.17706298828125,-0.81634521484375,-0.54901123046875,53.0,-45.0,-6.0,143.0,-314.0,917.0,
234,3.7239181995391846,0.013927221298217773,71.80183172130445,62.83704084288325,2.573348840548217e-38,191.0,-305.0,938.0,-113.6875,-28.75,84.6875,5.25,-11.75,2.5625,247.75,8.625,18.8125,0.02685546875,0.17724609375,-0.81658935546875,-0.54864501953125,44.0,7.0,21.0,147.0,-312.0,917.0,
235,3.737726926803589,0.013808727264404297,72.41797023377879,62.87243680505204,2.573348840548217e-38,176.0,-270.0,919.0,-113.6875,-28.75,84.6875,3.1875,-8.125,1.4375,247.75,8.6875,18.75,0.02618408203125,0.1773681640625,-0.81671142578125,-0.5484619140625,27.0,41.0,1.0,148.0,-312.0,917.0,
236,3.752854108810425,0.015127182006835938,66.10616567898121,62.885471472486046,2.573348840548217e-38,196.0,-248.0,896.0,-113.6875,-28.75,84.6875,-0.8125,-7.25,-4.625,247.75,8.875,18.75,0.02496337890625,0.17803955078125,-0.81646728515625,-0.5487060546875,56.0,62.0,-10.0,151.0,-311.0,917.0,
237,3.769912004470825,0.01705789566040039,58.62387834400246,62.86618884444418,2.573348840548217e-38,236.0,-219.0,860.0,-113.375,-26.5625,87.6875,-3.6875,-10.375,-9.9375,247.875,9.0,18.75,0.0242919921875,0.1788330078125,-0.81597900390625,-0.5491943359375,82.0,92.0,-56.0,153.0,-312.0,916.0,
238,3.785029172897339,0.015117168426513672,66.14995426300351,62.87930399696691,2.573348840548217e-38,106.0,-185.0,916.0,-113.375,-26.5625,87.6875,3.25,-0.3125,-8.3125,248.0625,9.1875,18.75,0.02301025390625,0.17913818359375,-0.81500244140625,-0.55059814453125,-50.0,125.0,0.0,156.0,-311.0,916.0,
239,3.8010191917419434,0.015990018844604492,62.53901322558039,62.87787247148055,2.573348840548217e-38,34.0,-397.0,987.0,-113.375,-26.5625,87.6875,9.0,16.125,11.3125,247.9375,9.0,18.625,0.02392578125,0.177734375,-0.81561279296875,-0.550048828125,-119.0,-87.0,69.0,153.0,-310.0,917.0,
240,3.827781915664673,0.026762723922729492,37.36540431711076,62.69949680723264,2.573348840548217e-38,93.0,-363.0,884.0,-111.0625,-28.75,88.0625,19.4375,13.0625,35.0,246.875,8.125,18.4375,0.027587890625,0.17230224609375,-0.82159423828125,-0.54266357421875,-29.0,-47.0,-39.0,138.0,-307.0,920.0,
241,3.844013214111328,0.016231298446655273,61.60936558997635,62.694893741595834,2.573348840548217e-38,123.0,-377.0,949.0,-111.0625,-28.75,88.0625,18.3125,13.75,19.875,246.4375,7.6875,18.0625,0.02825927734375,0.16802978515625,-0.8243408203125,-0.53985595703125,-71.0,120.0,86.0,132.0,-301.0,923.0,
242,3.859984874725342,0.015971660614013672,62.61089714882819,62.6945461845157,2.573348840548217e-38,164.0,-252.0,916.0,-113.25,-25.75,88.0625,9.25,13.875,16.0625,246.25,7.5625,18.0,0.029052734375,0.16668701171875,-0.8251953125,-0.5389404296875,93.0,-59.0,42.0,124.0,-299.0,925.0,
243,3.8735952377319336,0.013610363006591797,73.47342605892864,62.73241913171116,2.573348840548217e-38,218.0,-359.0,967.0,-113.25,-25.75,88.0625,6.125,26.4375,20.125,246.0,7.0,17.875,0.03240966796875,0.16357421875,-0.826904296875,-0.53704833984375,20.0,-19.0,30.0,119.0,-299.0,926.0,
244,3.889312982559204,0.015717744827270508,63.622358740993555,62.73601561359707,2.573348840548217e-38,140.0,-318.0,956.0,-113.25,-25.75,88.0625,7.9375,28.375,19.5,245.8125,6.6875,17.8125,0.0343017578125,0.16168212890625,-0.82781982421875,-0.53607177734375,-15.0,-36.0,-7.0,114.0,-298.0,927.0,
245,3.907238245010376,0.017925262451171875,55.78718876356672,62.70413643520972,2.573348840548217e-38,108.0,-383.0,888.0,-113.25,-25.75,88.0625,12.0625,26.0,20.4375,245.6875,6.375,17.6875,0.03582763671875,0.1595458984375,-0.828857421875,-0.5350341796875,0.0,-86.0,-39.0,109.0,-297.0,928.0,
246,3.920408010482788,0.01316976547241211,75.93149643361454,62.74857089930947,2.573348840548217e-38,71.0,-294.0,944.0,-113.6875,-21.6875,86.75,34.375,17.375,24.0,245.4375,6.125,17.5,0.0364990234375,0.1571044921875,-0.83026123046875,-0.53350830078125,-1.0,-57.0,-69.0,104.0,-294.0,929.0,
247,3.93571400642395,0.01530599594116211,65.3338733293872,62.75862514319936,2.573348840548217e-38,28.0,-272.0,960.0,-113.6875,-21.6875,86.75,34.0,14.5,17.375,244.75,5.4375,16.625,0.036376953125,0.147705078125,-0.8345947265625,-0.52947998046875,-66.0,21.0,14.0,93.0,-279.0,935.0,
248,3.951237916946411,0.015523910522460938,64.41675881557931,62.765139739208344,2.5752142490639263e-38,35.0,-258.0,964.0,-113.6875,-21.6875,86.75,33.0,8.8125,12.625,244.625,5.3125,16.3125,0.03564453125,0.1448974609375,-0.83551025390625,-0.52880859375,-56.0,15.0,27.0,90.0,-269.0,938.0,
249,3.967751979827881,0.016514062881469727,60.5544502995741,62.755938694232974,2.5752142490639263e-38,-8.0,-243.0,990.0,-117.75,-20.5625,85.1875,31.875,3.3125,9.3125,244.5,5.3125,16.0,0.03460693359375,0.14251708984375,-0.8363037109375,-0.52825927734375,-99.0,26.0,52.0,90.0,-269.0,938.0,
250,3.983699083328247,0.01594710350036621,62.707312332740294,62.75574403856161,2.5752142490639263e-38,14.0,-233.0,905.0,-117.75,-20.5625,85.1875,28.9375,-18.0625,-13.25,244.625,5.625,15.125,0.02801513671875,0.13763427734375,-0.83660888671875,-0.52947998046875,-61.0,30.0,-8.0,96.0,-254.0,941.0,
251,3.9995341300964355,0.015835046768188477,63.15106072240541,62.75730918539454,2.5752142490639263e-38,60.0,-242.0,996.0,-117.75,-20.5625,85.1875,27.3125,-19.1875,-19.875,244.75,5.875,14.8125,0.02520751953125,0.13665771484375,-0.8360595703125,-0.53070068359375,-40.0,7.0,53.0,100.0,-250.0,942.0,
252,4.015088081359863,0.015553951263427734,64.29234495232839,62.76325572281108,2.5752142490639263e-38,41.0,-223.0,985.0,-117.75,-16.0625,84.6875,25.1875,-21.9375,-24.1875,245.0,6.125,14.5625,0.02227783203125,0.1358642578125,-0.8353271484375,-0.5322265625,-63.0,22.0,42.0,105.0,-245.0,943.0,
253,4.0306971073150635,0.015609025955200195,64.06549664726818,62.76829869970778,2.5752142490639263e-38,96.0,-252.0,932.0,-117.75,-16.0625,84.6875,23.125,-30.4375,-39.25,245.875,7.1875,13.8125,0.01556396484375,0.13519287109375,-0.83294677734375,-0.53875732421875,-19.0,-15.0,-11.0,116.0,-237.0,944.0,
254,4.045133113861084,0.014436006546020508,69.27123486762787,62.7915059530777,2.5752142490639263e-38,79.0,-267.0,920.0,-117.75,-16.0625,84.6875,28.5,-37.6875,-35.6875,246.125,7.625,13.5,0.007568359375,0.13470458984375,-0.8302001953125,-0.5408935546875,-65.0,-51.0,-4.0,130.0,-227.0,944.0,
255,4.060544013977051,0.015410900115966797,64.88913642130017,62.79946704733372,2.5752142490639263e-38,62.0,-282.0,943.0,-116.0,-15.0,86.375,35.375,-48.4375,-31.625,246.375,8.125,13.125,0.002197265625,0.13446044921875,-0.82916259765625,-0.54254150390625,-77.0,-61.0,-1.0,139.0,-221.0,945.0,
256,4.0751800537109375,0.014636039733886719,68.32449338632958,62.8193102208776,2.5752142490639263e-38,94.0,-260.0,947.0,-116.0,-15.0,86.375,50.0625,-68.625,-27.8125,246.6875,9.5,12.1875,-0.01177978515625,0.13385009765625,-0.82757568359375,-0.54498291015625,-35.0,-55.0,-3.0,162.0,-204.0,945.0,
257,4.091524124145508,0.016344070434570312,61.184268876181584,62.8127788574809,2.5752142490639263e-38,152.0,-245.0,953.0,-116.0,-15.0,86.375,63.3125,-75.0,-27.3125,247.0,11.0,11.0,-0.02825927734375,0.13214111328125,-0.826171875,-0.54693603515625,-7.0,-30.0,9.0,187.0,-183.0,944.0,
258,4.106232166290283,0.01470804214477539,67.9900145890744,62.83132310881643,2.5752142490639263e-38,180.0,-214.0,954.0,-116.0,-15.0,86.375,63.3125,-75.0,-27.3125,247.0,11.0,11.0,-0.02825927734375,0.13214111328125,-0.826171875,-0.54693603515625,-7.0,-30.0,9.0,187.0,-183.0,944.0,
259,4.12114405632019,0.014911890029907227,67.06058038212487,62.846626194199,2.5752142490639263e-38,162.0,-205.0,914.0,-113.6875,-16.0625,90.5625,74.5625,-61.3125,-69.0625,248.0625,13.1875,8.6875,-0.05364990234375,0.1263427734375,-0.82061767578125,-0.55474853515625,-69.0,-66.0,-56.0,223.0,-144.0,943.0,
260,4.137181997299194,0.016037940979003906,62.352143664149374,62.844709314149426,2.5752142490639263e-38,153.0,-211.0,887.0,-113.6875,-16.0625,90.5625,85.5,-60.0625,-89.875,248.8125,13.875,7.6875,-0.06280517578125,0.122802734375,-0.81695556640625,-0.5599365234375,-33.0,-48.0,-28.0,235.0,-127.0,943.0,
261,4.150355100631714,0.013173103332519531,75.91225656989792,62.88618531948602,2.5752142490639263e-38,230.0,-179.0,908.0,-113.6875,-16.0625,90.5625,98.0625,-58.0,-111.125,249.75,14.5625,6.5,-0.07257080078125,0.1181640625,-0.8123779296875,-0.56640625,-16.0,-71.0,-34.0,246.0,-107.0,942.0,
262,4.165467262268066,0.015112161636352539,66.17187031632089,62.898105663503145,2.5752142490639263e-38,264.0,-146.0,894.0,-105.875,-15.6875,98.5,110.5,-58.9375,-121.1875,250.75,15.25,5.125,-0.0831298828125,0.1126708984375,-0.80718994140625,-0.57342529296875,5.0,-61.0,-47.0,258.0,-84.0,942.0,
263,4.180518865585327,0.015051603317260742,66.43810489300027,62.9108511302404,2.5752142490639263e-38,355.0,79.0,1037.0,-105.875,-15.6875,98.5,102.375,-48.375,-115.3125,253.625,17.0,2.25,-0.1044921875,0.10089111328125,-0.7969970703125,-0.5863037109375,76.0,117.0,98.0,279.0,-37.0,939.0,
264,4.194844961166382,0.014326095581054688,69.80268938889628,62.93438790800852,2.5752142490639263e-38,398.0,104.0,1089.0,-105.875,-15.6875,98.5,82.875,-39.875,-115.1875,254.625,17.4375,-0.125,-0.12158203125,0.0906982421875,-0.78607177734375,-0.5992431640625,64.0,119.0,87.0,294.0,3.0,935.0,
265,4.218608856201172,0.02376389503479004,42.08064370491507,62.816916436910596,2.5752142490639263e-38,301.0,108.0,927.0,-100.25,-15.375,104.25,65.5,-37.0,-109.4375,255.5625,17.75,-1.125,-0.128173828125,0.08709716796875,-0.7806396484375,-0.60546875,-9.0,104.0,-6.0,299.0,18.0,933.0,
266,4.231524229049683,0.012915372848510742,77.4271104465489,62.861509376194306,2.5752142490639263e-38,321.0,117.0,936.0,-100.25,-15.375,104.25,42.125,-35.25,-91.5,258.0625,18.6875,-3.25,-0.1435546875,0.08123779296875,-0.76611328125,-0.62115478515625,26.0,84.0,9.0,314.0,52.0,927.0,
267,4.248970985412598,0.01744675636291504,57.31724448938874,62.83874399628852,2.5752142490639263e-38,374.0,91.0,929.0,-100.25,-15.375,104.25,21.25,-27.875,-70.25,258.6875,18.9375,-3.6875,-0.14691162109375,0.0804443359375,-0.76226806640625,-0.625244140625,55.0,32.0,3.0,318.0,59.0,925.0,
268,4.26610803604126,0.01713705062866211,58.353098305462034,62.82072505802993,2.5752142490639263e-38,349.0,53.0,929.0,-95.375,-17.1875,108.0625,17.0625,-21.375,-55.875,259.1875,19.0625,-4.0,-0.14959716796875,0.07977294921875,-0.75909423828125,-0.62847900390625,28.0,-12.0,5.0,321.0,65.0,924.0,
269,4.282665967941284,0.016557931900024414,60.39401575256663,62.81134275090586,2.5752142490639263e-38,204.0,67.0,992.0,-95.375,-17.1875,108.0625,27.1875,-24.75,-11.5,259.5,19.875,-5.0,-0.15985107421875,0.07830810546875,-0.75634765625,-0.6295166015625,-144.0,-131.0,-23.0,333.0,81.0,918.0,
270,4.298744201660156,0.01607823371887207,62.195886531132764,62.80904081143679,2.5752142490639263e-38,274.0,-13.0,920.0,-95.375,-17.1875,108.0625,53.6875,-60.9375,13.0625,259.3125,20.4375,-5.5,-0.16650390625,0.0782470703125,-0.75653076171875,-0.6275634765625,-69.0,-102.0,6.0,343.0,88.0,914.0,
271,4.314211130142212,0.015466928482055664,64.65407796772155,62.8156554755972,2.5752142490639263e-38,344.0,88.0,954.0,-91.6875,-20.5625,110.0625,67.375,-71.5,14.25,259.125,21.1875,-6.125,-0.174560546875,0.07794189453125,-0.7567138671875,-0.62518310546875,-9.0,-9.0,45.0,354.0,98.0,908.0,
272,4.3301100730896,0.015898942947387695,62.89726325260553,62.81595511633815,2.573492333510964e-38,396.0,192.0,897.0,-91.6875,-20.5625,110.0625,64.0,-73.5625,4.375,259.0625,22.5625,-7.3125,-0.18963623046875,0.07830810546875,-0.7547607421875,-0.623046875,20.0,77.0,0.0,376.0,115.0,898.0,
273,4.34535813331604,0.01524806022644043,65.58211242279728,62.825661688710476,2.573492333510964e-38,372.0,129.0,880.0,-91.6875,-20.5625,110.0625,29.875,-67.0,-24.25,259.5,23.75,-8.125,-0.20135498046875,0.080810546875,-0.75048828125,-0.624267578125,-13.0,-56.0,-38.0,395.0,127.0,888.0,
274,4.36067008972168,0.015311956405639648,65.30844090123476,62.834379662389935,2.573492333510964e-38,458.0,111.0,885.0,-86.75,-14.1875,115.875,38.3125,-57.9375,-11.5,259.5625,24.25,-8.625,-0.20709228515625,0.08123779296875,-0.7491455078125,-0.62396240234375,55.0,-23.0,2.0,403.0,134.0,883.0,
275,4.37900710105896,0.018337011337280273,54.534513918685235,62.79962412792108,2.573492333510964e-38,409.0,245.0,888.0,-86.75,-14.1875,115.875,47.375,-50.375,1.5625,259.3125,25.1875,-9.5,-0.21795654296875,0.0806884765625,-0.74847412109375,-0.62109375,-8.0,98.0,13.0,418.0,147.0,874.0,
276,4.395542144775391,0.016535043716430664,60.47761452280363,62.790889248566955,2.573492333510964e-38,402.0,237.0,871.0,-86.75,-14.1875,115.875,29.4375,-45.0,3.9375,259.25,26.0625,-10.0,-0.22607421875,0.0826416015625,-0.747314453125,-0.619384765625,-5.0,-8.0,-13.0,431.0,153.0,867.0,
277,4.411103963851929,0.015561819076538086,64.25983974506289,62.79607152086119,2.573492333510964e-38,433.0,127.0,861.0,-79.6875,-11.5625,119.1875,12.1875,-44.5,-0.5625,259.3125,26.5,-10.1875,-0.22955322265625,0.08416748046875,-0.74652099609375,-0.61883544921875,-4.0,-27.0,-2.0,438.0,155.0,863.0,
278,4.425858020782471,0.014754056930541992,67.777968101094,62.81267919002312,2.573492333510964e-38,448.0,140.0,866.0,-79.6875,-11.5625,119.1875,14.625,-41.5,2.25,259.25,26.9375,-10.3125,-0.23602294921875,0.0865478515625,-0.7457275390625,-0.61700439453125,7.0,26.0,1.0,449.0,159.0,856.0,
279,4.442867040634155,0.01700901985168457,58.792335403204326,62.79728775322,2.573492333510964e-38,436.0,215.0,836.0,-79.6875,-11.5625,119.1875,12.0,-34.125,11.0,259.0625,27.625,-10.5625,-0.240966796875,0.08966064453125,-0.74560546875,-0.61480712890625,20.0,34.0,-9.0,460.0,159.0,851.0,
280,4.459325075149536,0.01645803451538086,60.760596841952776,62.78977093649327,2.573492333510964e-38,512.0,171.0,850.0,-75.25,-9.6875,122.5625,-4.3125,-33.5,13.3125,258.875,28.3125,-10.5,-0.24273681640625,0.09197998046875,-0.74560546875,-0.61376953125,46.0,14.0,2.0,465.0,157.0,848.0,
281,4.475989103317261,0.01666402816772461,60.009500100151655,62.779420037404535,2.573492333510964e-38,511.0,93.0,815.0,-75.25,-9.6875,122.5625,-4.4375,-26.4375,14.0,258.8125,28.625,-10.4375,-0.2449951171875,0.09503173828125,-0.74609375,-0.61181640625,36.0,-59.0,-32.0,472.0,154.0,845.0,
282,4.492477893829346,0.01648879051208496,60.647262106161165,62.771594354942025,2.573492333510964e-38,499.0,136.0,828.0,-75.25,-9.6875,122.5625,5.3125,-6.375,9.6875,258.5625,28.875,-10.375,-0.24578857421875,0.09503173828125,-0.7467041015625,-0.6107177734375,8.0,29.0,0.0,473.0,155.0,844.0,
283,4.507552146911621,0.01507425308227539,66.33827855629013,62.783522137153604,2.573492333510964e-38,433.0,198.0,846.0,-71.875,-9.0,123.0625,-3.75,2.0625,-0.9375,258.5625,28.8125,-10.375,-0.24542236328125,0.09515380859375,-0.7467041015625,-0.61090087890625,-39.0,43.0,1.0,473.0,154.0,844.0,
284,4.52538800239563,0.01783585548400879,56.06683687791576,62.75704974902867,2.573492333510964e-38,442.0,143.0,839.0,-71.875,-9.0,123.0625,-11.375,1.75,-2.3125,258.5625,28.8125,-10.25,-0.2440185546875,0.096435546875,-0.746337890625,-0.61163330078125,-2.0,-39.0,0.0,472.0,151.0,845.0,
285,4.542311906814575,0.016923904418945312,59.088019835455874,62.74337954917418,2.573492333510964e-38,484.0,122.0,859.0,-71.875,-9.0,123.0625,-10.0,1.5,-0.25,258.6875,28.8125,-10.0,-0.242919921875,0.09735107421875,-0.74609375,-0.61224365234375,-2.0,-15.0,2.0,472.0,149.0,846.0,
286,4.5580360889434814,0.01572418212890625,63.59631246967491,62.746321972692556,2.573492333510964e-38,476.0,146.0,861.0,-71.1875,-8.5625,123.375,-6.875,2.375,-5.875,258.8125,28.75,-9.9375,-0.24249267578125,0.0975341796875,-0.74578857421875,-0.61279296875,4.0,-2.0,14.0,471.0,148.0,846.0,
287,4.572946071624756,0.014909982681274414,67.06915905783777,62.76041648092947,2.573492333510964e-38,472.0,158.0,856.0,-71.1875,-8.5625,123.375,-6.1875,3.875,-4.4375,258.8125,28.6875,-9.875,-0.241943359375,0.09765625,-0.74560546875,-0.61322021484375,-4.0,7.0,-9.0,470.0,147.0,847.0,
288,4.586451053619385,0.013504981994628906,74.04674811100911,62.79364951964889,2.573492333510964e-38,461.0,144.0,844.0,-71.1875,-8.5625,123.375,-10.0,8.8125,-1.75,258.875,28.625,-9.8125,-0.2412109375,0.09771728515625,-0.74554443359375,-0.613525390625,-4.0,7.0,-9.0,468.0,145.0,848.0,
289,4.602490186691284,0.016039133071899414,62.34750940198891,62.79209477419032,2.573492333510964e-38,460.0,135.0,851.0,-71.1875,-8.5625,123.375,-11.625,10.9375,-1.125,258.9375,28.4375,-9.625,-0.23883056640625,0.0980224609375,-0.74566650390625,-0.6142578125,-6.0,-8.0,1.0,467.0,144.0,849.0,
290,4.623549938201904,0.021059751510620117,47.48394108523621,62.72236785070409,2.573492333510964e-38,449.0,128.0,860.0,-72.25,-10.0625,124.6875,-11.75,14.375,-3.1875,259.0,28.1875,-9.375,-0.23590087890625,0.09796142578125,-0.74578857421875,-0.61529541015625,-13.0,-12.0,7.0,463.0,141.0,852.0,
291,4.639074087142944,0.015524148941040039,64.4157695083931,62.728034632276696,2.573492333510964e-38,440.0,113.0,859.0,-72.25,-10.0625,124.6875,-9.375,14.875,-3.0625,259.125,27.875,-9.1875,-0.2330322265625,0.0975341796875,-0.745849609375,-0.6163330078125,-18.0,-25.0,3.0,458.0,139.0,855.0,
292,4.653167247772217,0.014093160629272461,70.95640405339108,62.75295609453969,2.573492333510964e-38,439.0,116.0,867.0,-72.25,-10.0625,124.6875,-6.5625,14.5,-2.5625,259.125,27.75,-9.125,-0.23175048828125,0.09716796875,-0.7459716796875,-0.61676025390625,-16.0,-21.0,10.0,456.0,138.0,856.0,
293,4.669922113418579,0.016754865646362305,59.68415510494486,62.741945772091626,2.573492333510964e-38,455.0,157.0,872.0,-72.6875,-10.5,124.1875,-4.75,14.0625,-5.1875,259.25,27.4375,-9.0625,-0.2294921875,0.09613037109375,-0.7459716796875,-0.61773681640625,2.0,19.0,12.0,452.0,137.0,859.0,
294,4.685315132141113,0.01539301872253418,64.96451527964933,62.74924774710869,2.573492333510964e-38,440.0,138.0,868.0,-72.6875,-10.5,124.1875,-11.0625,16.25,-8.5625,259.375,27.25,-9.0,-0.22821044921875,0.09564208984375,-0.74591064453125,-0.618408203125,8.0,21.0,8.0,449.0,136.0,860.0,
295,4.700944900512695,0.01562976837158203,63.98047470864604,62.75334134799722,2.573492333510964e-38,441.0,133.0,865.0,-72.6875,-10.5,124.1875,-14.6875,17.4375,-12.3125,259.5,26.9375,-8.8125,-0.22491455078125,0.09515380859375,-0.7452392578125,-0.6204833984375,-2.0,-1.0,2.0,444.0,134.0,863.0,
296,4.714691162109375,0.013746261596679688,72.74705147772998,62.78247923827278,2.573635826473711e-38,419.0,134.0,873.0,-74.1875,-12.375,121.375,-18.25,20.5625,-18.25,259.9375,26.5,-8.625,-0.222900390625,0.0948486328125,-0.74462890625,-0.6219482421875,-4.0,-3.0,4.0,441.0,133.0,865.0,
297,4.729793071746826,0.015101909637451172,66.21679138644186,62.79344476487018,2.573635826473711e-38,392.0,120.0,877.0,-74.1875,-12.375,121.375,-19.25,20.375,-17.0625,260.125,26.25,-8.5,-0.2186279296875,0.09442138671875,-0.74322509765625,-0.625244140625,-41.0,-10.0,8.0,434.0,130.0,869.0,
298,4.745787858963013,0.015994787216186523,62.52036907299477,62.79252441450576,2.573635826473711e-38,396.0,122.0,888.0,-74.1875,-12.375,121.375,-14.5625,14.75,-2.375,260.3125,25.9375,-8.25,-0.2149658203125,0.09442138671875,-0.742919921875,-0.62689208984375,-32.0,-4.0,15.0,429.0,126.0,872.0,
299,4.761104106903076,0.015316247940063477,65.29014180974767,62.80055913217335,2.573635826473711e-38,403.0,117.0,885.0,-76.0,-15.0,120.875,-13.1875,11.625,2.9375,260.25,25.8125,-8.0625,-0.2135009765625,0.09466552734375,-0.7431640625,-0.62701416015625,-23.0,-6.0,11.0,427.0,124.0,873.0,
300,4.776180028915405,0.015075922012329102,66.33093479670426,62.81170269624975,2.573635826473711e-38,410.0,101.0,877.0,-76.0,-15.0,120.875,-13.625,9.1875,3.1875,260.25,25.625,-7.75,-0.2108154296875,0.09552001953125,-0.74371337890625,-0.627197265625,-14.0,-18.0,1.0,424.0,120.0,875.0,
301,4.788816928863525,0.012636899948120117,79.1333320755429,62.85477279070529,2.573635826473711e-38,406.0,93.0,880.0,-76.0,-15.0,120.875,-12.25,8.375,0.75,260.25,25.5625,-7.625,-0.20953369140625,0.0958251953125,-0.7437744140625,-0.62744140625,-17.0,-24.0,4.0,423.0,118.0,876.0,
