Index,Time,Difference,Hz,AveHz,Pressure,Acceleration-X,Acceleration-Y,Acceleration-Z,Magnetic-X,Magnetic-Y,Magnetic-Z,Angular-Vel-X,Angular-Vel-Y,Angular-Vel-Z,Heading,Roll,Pitch,Quaternion-X,Quaternion-Y,Quaternion-Z,Quaternion-W,Linear-Acceleration-X,Linear-Acceleration-Y,Linear-Acceleration-Z,Gravity-X,Gravity-Y,Gravity-Z,
0,3.0994415283203125e-06,3.0994415283203125e-06,322638.76923076925,0.0,2.569474530554052e-38,-648.0,-512.0,536.0,-90.375,-74.1875,-73.75,-22.5,8.1875,-4.1875,298.25,-40.0,45.375,-0.455078125,0.15509033203125,0.449951171875,0.7525634765625,-17.0,22.0,9.0,-630.0,-534.0,527.0,
1,0.019576072692871094,0.019572973251342773,51.09085815214081,51.08276903590393,2.569474530554052e-38,-682.0,-503.0,548.0,-90.375,-74.1875,-73.75,-4.0,12.4375,9.375,298.0625,-40.25,45.75,-0.45782470703125,0.15618896484375,0.45025634765625,0.75048828125,-23.0,1.0,2.0,-634.0,-535.0,521.0,
2,0.034510135650634766,0.014934062957763672,66.96101408090935,57.95398836582704,2.569474530554052e-38,-639.0,-548.0,501.0,-90.375,-74.1875,-73.75,-2.75,15.5,11.4375,298.0,-40.4375,45.8125,-0.45843505859375,0.15753173828125,0.450439453125,0.749755859375,-2.0,-13.0,-18.0,-636.0,-534.0,519.0,
3,0.05280017852783203,0.018290042877197266,54.67455744714133,56.81798970468708,2.5689005587030644e-38,-625.0,-551.0,487.0,-89.5625,-72.0,-77.5625,-4.875,18.0625,11.1875,297.9375,-40.625,45.875,-0.45928955078125,0.15887451171875,0.45050048828125,0.7489013671875,13.0,-17.0,-30.0,-639.0,-534.0,517.0,
4,0.07094812393188477,0.018147945404052734,55.10265640190231,56.379221582240625,2.5689005587030644e-38,-567.0,-515.0,468.0,-89.5625,-72.0,-77.5625,-12.8125,20.25,2.125,297.8125,-41.1875,46.4375,-0.46337890625,0.1622314453125,0.4498291015625,0.74609375,109.0,42.0,-34.0,-646.0,-534.0,507.0,
5,0.08583307266235352,0.01488494873046875,67.18195797027165,58.252604094330714,2.5689005587030644e-38,-524.0,-490.0,508.0,-89.5625,-72.0,-77.5625,-12.625,17.5,-3.5625,297.8125,-41.3125,46.6875,-0.46490478515625,0.1627197265625,0.44903564453125,0.7454833984375,123.0,46.0,3.0,-647.0,-536.0,504.0,
6,0.10023808479309082,0.014405012130737305,69.4202816994654,59.85748842253984,2.5689005587030644e-38,-545.0,-500.0,524.0,-88.875,-71.5625,-78.375,-10.5,13.1875,-6.5625,297.9375,-41.3125,46.9375,-0.46612548828125,0.16290283203125,0.4482421875,0.7451171875,102.0,37.0,21.0,-647.0,-538.0,502.0,
7,0.11508512496948242,0.014847040176391602,67.3534918825173,60.82454184983696,2.5689005587030644e-38,-597.0,-529.0,525.0,-88.875,-71.5625,-78.375,-0.875,4.75,-8.25,298.1875,-41.25,47.3125,-0.468017578125,0.1627197265625,0.44610595703125,0.74530029296875,50.0,10.0,25.0,-647.0,-540.0,499.0,
8,0.13314008712768555,0.018054962158203125,55.386435664483415,60.08708701180094,2.5689005587030644e-38,-689.0,-484.0,524.0,-88.875,-71.5625,-78.375,3.125,6.4375,-7.1875,298.25,-41.25,47.375,-0.4681396484375,0.1629638671875,0.44537353515625,0.74560546875,-42.0,57.0,26.0,-647.0,-542.0,498.0,
9,0.1480090618133545,0.014868974685668945,67.25413292712258,60.80708768595108,2.5689005587030644e-38,-691.0,-493.0,506.0,-88.0625,-70.75,-79.6875,6.125,8.875,-6.375,298.375,-41.25,47.375,-0.46820068359375,0.16351318359375,0.44451904296875,0.7459716796875,-44.0,49.0,7.0,-647.0,-542.0,498.0,
10,0.16117215156555176,0.013163089752197266,75.97000543379822,62.04545824365204,2.5689005587030644e-38,-668.0,-524.0,482.0,-88.0625,-70.75,-79.6875,4.8125,10.3125,-3.8125,298.625,-41.375,47.4375,-0.4683837890625,0.1649169921875,0.44293212890625,0.7464599609375,27.0,9.0,-59.0,-648.0,-542.0,497.0,
11,0.1779463291168213,0.01677417755126953,59.615441469100006,61.816391799678705,2.5689005587030644e-38,-606.0,-530.0,437.0,-88.0625,-70.75,-79.6875,-3.375,3.75,-10.0,298.8125,-41.3125,47.6875,-0.46923828125,0.16485595703125,0.4415283203125,0.74676513671875,45.0,0.0,-30.0,-647.0,-544.0,495.0,
12,0.19241094589233398,0.014464616775512695,69.13422011241326,62.366514255975616,2.5689005587030644e-38,-689.0,-535.0,519.0,-87.375,-72.25,-81.25,-5.0625,0.5,-14.4375,298.8125,-41.3125,47.6875,-0.46923828125,0.16485595703125,0.4415283203125,0.74676513671875,45.0,0.0,-30.0,-647.0,-544.0,495.0,
13,0.20875906944274902,0.01634812355041504,61.169099738949086,62.272743573256705,2.5689005587030644e-38,-728.0,-509.0,509.0,-87.375,-72.25,-81.25,-3.6875,-0.6875,-18.75,299.1875,-40.9375,48.0625,-0.47076416015625,0.16229248046875,0.43853759765625,0.7481689453125,-101.0,33.0,8.0,-643.0,-551.0,494.0,
14,0.2250690460205078,0.01630997657775879,61.31216652779605,62.20313387174685,2.5689005587030644e-38,-758.0,-534.0,499.0,-87.375,-72.25,-81.25,-2.8125,0.4375,-18.8125,299.375,-40.8125,48.1875,-0.47119140625,0.16143798828125,0.4373779296875,0.74871826171875,-117.0,19.0,5.0,-641.0,-553.0,494.0,
15,0.24170303344726562,0.016633987426757812,60.11787639032221,62.059626584176385,2.5689005587030644e-38,-809.0,-516.0,466.0,-87.375,-72.25,-81.25,-2.875,2.625,-17.8125,299.5625,-40.6875,48.375,-0.47174072265625,0.16082763671875,0.4361572265625,0.74920654296875,-169.0,38.0,-27.0,-639.0,-555.0,493.0,
16,0.25821805000305176,0.016515016555786133,60.550953528995656,61.96313541911924,2.5689005587030644e-38,-815.0,-530.0,432.0,-86.1875,-73.375,-81.6875,-6.3125,16.3125,-5.3125,299.9375,-40.6875,48.875,-0.47430419921875,0.16119384765625,0.43304443359375,0.74932861328125,-137.0,8.0,-59.0,-639.0,-560.0,488.0,
17,0.27479004859924316,0.016571998596191406,60.342751913448815,61.86541356449552,2.5689005587030644e-38,-704.0,-561.0,462.0,-86.1875,-73.375,-81.6875,-6.3125,16.3125,-5.3125,300.0,-40.8125,49.125,-0.4755859375,0.16204833984375,0.43231201171875,0.748779296875,-63.0,0.0,-23.0,-641.0,-561.0,485.0,
18,0.2904689311981201,0.015678882598876953,63.780055351114626,61.96876177343298,2.5689005587030644e-38,-678.0,-550.0,462.0,-86.1875,-73.375,-81.6875,-12.0625,20.375,-2.4375,300.0,-40.9375,49.375,-0.47711181640625,0.16278076171875,0.43145751953125,0.74810791015625,-35.0,11.0,-19.0,-642.0,-562.0,482.0,
19,0.3074221611022949,0.016953229904174805,58.985810117147395,61.8042626851411,2.5689005587030644e-38,-678.0,-572.0,508.0,-85.5,-74.1875,-82.375,-14.0,14.375,-3.875,300.125,-41.125,50.125,-0.4815673828125,0.16363525390625,0.429443359375,0.74627685546875,-53.0,-21.0,14.0,-645.0,-566.0,473.0,
20,0.3241920471191406,0.016769886016845703,59.63069748926611,61.6918279696417,2.5689005587030644e-38,-711.0,-591.0,485.0,-85.5,-74.1875,-82.375,-12.875,12.625,-3.5625,300.1875,-41.125,50.3125,-0.48284912109375,0.163818359375,0.4288330078125,0.7457275390625,-65.0,-22.0,14.0,-645.0,-568.0,470.0,
21,0.34039807319641113,0.016206026077270508,61.70544186662351,61.69247611423144,2.5689005587030644e-38,-710.0,-597.0,473.0,-85.5,-74.1875,-82.375,-12.5625,15.5625,-6.5625,300.25,-41.1875,50.625,-0.4842529296875,0.1640625,0.427978515625,0.7452392578125,-63.0,-27.0,5.0,-646.0,-570.0,467.0,
22,0.3571751117706299,0.01677703857421875,59.60527512505684,61.5944372241925,2.5689005587030644e-38,-698.0,-607.0,449.0,-83.6875,-73.375,-84.5,-18.125,22.8125,-13.8125,300.6875,-41.3125,51.8125,-0.49078369140625,0.1646728515625,0.42327880859375,0.7435302734375,-60.0,-6.0,-16.0,-647.0,-578.0,455.0,
23,0.3741772174835205,0.017002105712890625,58.816244110388155,61.46819989384566,2.5689005587030644e-38,-707.0,-577.0,441.0,-83.6875,-73.375,-84.5,-21.625,26.0,-17.9375,300.875,-41.3125,52.3125,-0.4935302734375,0.1649169921875,0.4210205078125,0.742919921875,-59.0,5.0,-7.0,-647.0,-582.0,449.0,
24,0.3892219066619873,0.015044689178466797,66.4686380780324,61.661483049160346,2.5689005587030644e-38,-700.0,-564.0,439.0,-83.6875,-73.375,-84.5,-21.375,39.3125,-22.8125,301.1875,-41.375,52.9375,-0.49658203125,0.1656494140625,0.41827392578125,0.7423095703125,-51.0,22.0,-3.0,-648.0,-587.0,443.0,
25,0.40444016456604004,0.015218257904052734,65.71054363152123,61.81384093447972,2.5689005587030644e-38,-646.0,-612.0,464.0,-81.75,-72.0,-85.6875,-23.5,50.8125,-22.25,301.5,-41.5,53.625,-0.50018310546875,0.1671142578125,0.4150390625,0.7413330078125,-22.0,17.0,2.0,-650.0,-591.0,435.0,
26,0.42130422592163086,0.01686406135559082,59.29769697312428,61.71312415184842,2.569187544628558e-38,-684.0,-640.0,442.0,-81.75,-72.0,-85.6875,-27.0625,61.1875,-20.1875,302.4375,-42.0,56.0,-0.512451171875,0.1727294921875,0.40460205078125,0.73748779296875,-20.0,-34.0,-9.0,-656.0,-604.0,407.0,
27,0.4391162395477295,0.017812013626098633,56.141883842642784,61.48713613463446,2.569187544628558e-38,-646.0,-636.0,353.0,-81.75,-72.0,-85.6875,-32.75,59.0625,-23.5625,302.8125,-42.125,56.875,-0.516845703125,0.17425537109375,0.40106201171875,0.7359619140625,11.0,-27.0,-44.0,-658.0,-608.0,397.0,
28,0.4538419246673584,0.014725685119628906,67.90855514539214,61.69549016548545,2.569187544628558e-38,-585.0,-570.0,329.0,-77.6875,-73.0,-91.5625,-35.5625,56.875,-26.0,303.125,-42.1875,57.75,-0.5213623046875,0.17547607421875,0.3974609375,0.73443603515625,49.0,-22.0,-40.0,-659.0,-614.0,387.0,
29,0.4664299488067627,0.012588024139404297,79.44058487063904,62.17439526383074,2.569187544628558e-38,-620.0,-552.0,349.0,-77.6875,-73.0,-91.5625,-31.4375,58.9375,-32.0,304.375,-42.3125,60.375,-0.53436279296875,0.17889404296875,0.3853759765625,0.730712890625,-15.0,68.0,46.0,-660.0,-630.0,357.0,
30,0.48124122619628906,0.014811277389526367,67.51612124333982,62.33879885378643,2.569187544628558e-38,-710.0,-557.0,430.0,-77.6875,-73.0,-91.5625,-27.75,54.3125,-32.0625,304.75,-42.3125,61.1875,-0.53826904296875,0.18017578125,0.3817138671875,0.7294921875,-49.0,78.0,81.0,-660.0,-635.0,348.0,
31,0.49622201919555664,0.014980792999267578,66.75214056084286,62.47203630797201,2.569187544628558e-38,-709.0,-502.0,438.0,-70.5,-72.6875,-95.6875,-22.5625,55.75,-25.1875,305.125,-42.375,61.9375,-0.54180908203125,0.18170166015625,0.3779296875,0.7283935546875,-48.0,137.0,98.0,-661.0,-639.0,340.0,
32,0.5101940631866455,0.013972043991088867,71.5714895141887,62.7212316037738,2.569187544628558e-38,-694.0,-548.0,406.0,-70.5,-72.6875,-95.6875,-18.125,67.625,-34.625,306.5,-42.3125,63.8125,-0.5499267578125,0.18603515625,0.3660888671875,0.727294921875,-24.0,60.0,16.0,-660.0,-650.0,319.0,
33,0.530951976776123,0.02075791358947754,48.17439843794866,62.15251367999806,2.569187544628558e-38,-650.0,-650.0,147.0,-70.5,-72.6875,-95.6875,-24.0625,109.5,-69.5625,307.625,-42.125,65.0,-0.56109619140625,0.19061279296875,0.34765625,0.72662353515625,3.0,19.0,-144.0,-654.0,-669.0,291.0,
34,0.5432260036468506,0.012274026870727539,81.4728540626639,62.58905091388682,2.569187544628558e-38,-679.0,-639.0,98.0,-64.1875,-72.0,-100.6875,-39.0625,113.6875,-83.5,310.0625,-41.5,68.0,-0.568115234375,0.1925048828125,0.33770751953125,0.725341796875,-29.0,41.0,-176.0,-650.0,-680.0,274.0,
35,0.5592899322509766,0.016063928604125977,62.25127268949345,62.579349245811294,2.569187544628558e-38,-662.0,-650.0,104.0,-64.1875,-72.0,-100.6875,-52.75,116.6875,-84.0625,311.1875,-41.125,69.6875,-0.58392333984375,0.19598388671875,0.31744384765625,0.72100830078125,48.0,23.0,-65.0,-640.0,-703.0,236.0,
36,0.5774459838867188,0.018156051635742188,55.07805441748083,62.34349359863649,2.569187544628558e-38,-595.0,-664.0,176.0,-64.1875,-72.0,-100.6875,-45.4375,125.625,-79.625,313.6875,-40.375,73.0,-0.5982666015625,0.2010498046875,0.29742431640625,0.71636962890625,39.0,55.0,-7.0,-631.0,-723.0,199.0,
37,0.5930981636047363,0.015652179718017578,63.88886519421173,62.38427678669772,2.569187544628558e-38,-560.0,-701.0,154.0,-51.1875,-72.6875,-109.375,-49.75,110.0,-69.3125,315.9375,-39.6875,76.0625,-0.60516357421875,0.20294189453125,0.28851318359375,0.71368408203125,66.0,30.0,-27.0,-626.0,-732.0,181.0,
38,0.6091909408569336,0.016092777252197266,62.139678212687784,62.37781531443385,2.569187544628558e-38,-567.0,-758.0,168.0,-51.1875,-72.6875,-109.375,-67.4375,99.5,-74.3125,316.9375,-39.1875,77.625,-0.62152099609375,0.2027587890625,0.2716064453125,0.706298828125,11.0,-73.0,8.0,-611.0,-752.0,142.0,
39,0.6238250732421875,0.014634132385253906,68.33339850114044,62.51752562189663,2.569187544628558e-38,-614.0,-833.0,116.0,-51.1875,-72.6875,-109.375,-85.6875,94.0,-84.25,317.875,-38.5625,79.25,-0.63018798828125,0.201904296875,0.26300048828125,0.7020263671875,-11.0,-69.0,-5.0,-603.0,-763.0,121.0,
40,0.6393780708312988,0.015552997589111328,64.29628721218997,62.560794348159746,2.569187544628558e-38,-553.0,-717.0,230.0,-51.1875,-72.6875,-109.375,-69.375,97.0,-71.5625,319.875,-37.375,82.375,-0.6376953125,0.20233154296875,0.2547607421875,0.6982421875,42.0,54.0,128.0,-595.0,-772.0,102.0,
41,0.6542842388153076,0.014906167984008789,67.08632299547352,62.66389677097746,2.569187544628558e-38,-538.0,-710.0,292.0,-36.0,-71.5625,-115.5625,-24.5,125.8125,-58.25,320.9375,-36.9375,83.625,-0.6435546875,0.20452880859375,0.24627685546875,0.6951904296875,42.0,75.0,207.0,-589.0,-778.0,86.0,
42,0.6709749698638916,0.016690731048583984,59.91349312916036,62.595479543029406,2.569187544628558e-38,-373.0,-776.0,247.0,-36.0,-71.5625,-115.5625,-13.6875,145.375,-57.5625,323.75,-36.125,86.0,-0.65789794921875,0.21893310546875,0.2135009765625,0.688232421875,197.0,19.0,-47.0,-571.0,-796.0,37.0,
43,0.6883249282836914,0.017349958419799805,57.637025738274865,62.47049646628177,2.569187544628558e-38,-391.0,-791.0,-80.0,-36.0,-71.5625,-115.5625,-11.25,150.8125,-64.9375,327.1875,-35.0,88.4375,-0.66241455078125,0.22381591796875,0.2015380859375,0.6859130859375,171.0,11.0,-102.0,-563.0,-802.0,21.0,
44,0.7052822113037109,0.01695728302001953,58.971711377312864,62.3863742694803,2.569187544628558e-38,-537.0,-930.0,-112.0,-20.5625,-68.1875,-122.1875,-8.25,129.5,-70.0,330.5625,-33.75,90.375,-0.67041015625,0.2314453125,0.17901611328125,0.681884765625,7.0,-114.0,-106.0,-544.0,-808.0,7.0,
45,0.7236340045928955,0.01835179328918457,54.49058760864199,62.186132374080806,2.569187544628558e-38,-549.0,-1000.0,-79.0,-20.5625,-68.1875,-122.1875,-10.75,112.6875,-79.1875,333.9375,-32.125,92.0,-0.6778564453125,0.23577880859375,0.1568603515625,0.67840576171875,-27.0,-170.0,-49.0,-522.0,-829.0,-29.0,
46,0.7387790679931641,0.015145063400268555,66.02811580057617,62.264893515398896,2.569187544628558e-38,-582.0,-943.0,-29.0,-20.5625,-68.1875,-122.1875,-10.8125,98.75,-66.1875,335.375,-31.5,92.6875,-0.68109130859375,0.23748779296875,0.14764404296875,0.67669677734375,-69.0,-108.0,10.0,-512.0,-835.0,-39.0,
47,0.7556560039520264,0.016876935958862305,59.252461610182664,62.19761340370935,2.569187544628558e-38,-563.0,-878.0,-164.0,-2.25,-67.75,-123.25,4.625,106.875,-49.9375,338.1875,-30.375,93.8125,-0.68548583984375,0.24322509765625,0.12982177734375,0.67388916015625,-67.0,-33.0,-107.0,-495.0,-839.0,-48.0,
48,0.7739920616149902,0.018336057662963867,54.537350306214,62.01613993281086,2.569187544628558e-38,-519.0,-981.0,-284.0,-2.25,-67.75,-123.25,12.3125,115.375,-54.625,341.375,-29.125,94.8125,-0.68878173828125,0.2503662109375,0.10992431640625,0.67144775390625,-40.0,-128.0,-211.0,-478.0,-853.0,-72.0,
49,0.7888870239257812,0.014894962310791016,67.13679290584884,62.11282289339562,2.569187544628558e-38,-564.0,-1076.0,-268.0,-2.25,-67.75,-123.25,9.5,104.25,-58.1875,342.9375,-28.5,95.25,-0.69036865234375,0.25299072265625,0.100341796875,0.6702880859375,-96.0,-218.0,-189.0,-468.0,-857.0,-79.0,
50,0.8068161010742188,0.0179290771484375,55.77531914893617,61.97199080859755,2.5689005587030644e-38,-625.0,-1189.0,-355.0,11.375,-68.5625,-122.5,3.6875,84.6875,-49.9375,345.6875,-27.3125,96.0,-0.6934814453125,0.2567138671875,0.0838623046875,0.66796875,-175.0,-323.0,-263.0,-450.0,-866.0,-91.0,
51,0.8236942291259766,0.016878128051757812,59.24827664142841,61.91617981118575,2.5689005587030644e-38,-680.0,-1172.0,-559.0,11.375,-68.5625,-122.5,-5.125,97.6875,-39.9375,348.1875,-26.3125,96.9375,-0.69677734375,0.262451171875,0.06842041015625,0.6640625,-245.0,-299.0,-452.0,-435.0,-872.0,-106.0,
52,0.8393650054931641,0.0156707763671875,63.81304771178189,61.951593954584396,2.5689005587030644e-38,-655.0,-1225.0,-575.0,25.5625,-68.1875,-120.75,-24.0,106.25,-38.625,349.5625,-25.8125,97.5625,-0.69903564453125,0.26580810546875,0.06036376953125,0.6611328125,-228.0,-316.0,-447.0,-427.0,-874.0,-116.0,
53,0.8572330474853516,0.0178680419921875,55.96584116140051,61.826827786764326,2.5689005587030644e-38,-688.0,-1424.0,-651.0,25.5625,-68.1875,-120.75,-30.25,106.75,-38.25,352.125,-24.75,99.0,-0.7047119140625,0.2728271484375,0.044677734375,0.65338134765625,-276.0,-545.0,-512.0,-411.0,-879.0,-139.0,
54,0.8744652271270752,0.017232179641723633,58.030964207147505,61.75202663850789,2.5689005587030644e-38,-816.0,-1829.0,-922.0,25.5625,-68.1875,-120.75,-26.3125,105.6875,-46.0625,354.9375,-23.625,100.375,-0.71038818359375,0.279296875,0.02850341796875,0.6453857421875,-423.0,-946.0,-760.0,-393.0,-883.0,-162.0,
55,0.8903040885925293,0.0158388614654541,63.135851158309876,61.77664542341799,2.5689005587030644e-38,-1085.0,-1775.0,-1504.0,37.5625,-64.375,-116.6875,-84.625,67.25,-33.6875,356.75,-22.5625,102.1875,-0.719482421875,0.28277587890625,0.01788330078125,0.634033203125,-708.0,-890.0,-1312.0,-376.0,-884.0,-191.0,
56,0.9049091339111328,0.014605045318603516,68.46948969930457,61.88466653879473,2.5689005587030644e-38,-1064.0,-1707.0,-1551.0,37.5625,-64.375,-116.6875,-126.4375,51.875,-30.0625,357.0,-22.1875,103.5625,-0.72698974609375,0.28350830078125,0.01611328125,0.6251220703125,-694.0,-825.0,-1337.0,-370.0,-882.0,-213.0,
57,0.9218509197235107,0.01694178581237793,59.025654737612406,61.832123590109255,2.5689005587030644e-38,-1252.0,-1839.0,-1473.0,37.5625,-64.375,-116.6875,-148.4375,54.0,-21.375,357.25,-21.4375,106.8125,-0.74383544921875,0.28533935546875,0.014404296875,0.604248046875,-893.0,-965.0,-1209.0,-359.0,-873.0,-264.0,
58,0.9353940486907959,0.013543128967285156,73.8381804098303,62.005953620485876,2.5689005587030644e-38,-1449.0,-1896.0,-1490.0,37.5625,-64.375,-116.6875,-139.1875,58.4375,-16.6875,357.4375,-21.125,108.3125,-0.7513427734375,0.28704833984375,0.01324462890625,0.59405517578125,-1095.0,-1028.0,-1202.0,-353.0,-867.0,-288.0,
59,0.9493429660797119,0.013948917388916016,71.6901514374594,62.14824579534099,2.5689005587030644e-38,-1879.0,-2127.0,-1884.0,44.375,-53.5625,-113.6875,-144.75,72.0,-53.125,358.5,-19.9375,111.4375,-0.767578125,0.28802490234375,0.00732421875,0.572509765625,-1544.0,-1269.0,-1316.0,-346.0,-862.0,-312.0,
60,0.9642200469970703,0.014877080917358398,67.21748745973493,62.226459807449224,2.5689005587030644e-38,-2157.0,-2629.0,-2436.0,44.375,-53.5625,-113.6875,-144.125,92.5625,-50.0625,359.5,-19.125,113.0625,-0.7757568359375,0.28912353515625,0.00244140625,0.5609130859375,-1835.0,-1777.0,-2072.0,-321.0,-852.0,-363.0,
61,0.981842041015625,0.017621994018554688,56.74726702024029,62.128119852049856,2.5689005587030644e-38,-2028.0,-3172.0,-2846.0,44.375,-53.5625,-113.6875,-157.9375,153.1875,6.0625,1.9375,-17.8125,116.8125,-0.7901611328125,0.3009033203125,-0.00927734375,0.53387451171875,-1728.0,-2339.0,-2425.0,-300.0,-832.0,-421.0,
62,0.997657299041748,0.015815258026123047,63.230078089667444,62.145588529799895,2.5689005587030644e-38,-1824.0,-3290.0,-3054.0,49.1875,-34.0,-110.875,-189.3125,160.125,46.5,2.875,-17.5,119.125,-0.79718017578125,0.311279296875,-0.0130615234375,0.51708984375,-1529.0,-2474.0,-2598.0,-295.0,-816.0,-455.0,
63,1.0122089385986328,0.014551639556884766,68.72077858242946,62.24011426654783,2.5689005587030644e-38,-1334.0,-3933.0,-3429.0,49.1875,-34.0,-110.875,-303.6875,91.3125,156.75,0.875,-18.375,125.375,-0.81256103515625,0.33843994140625,-0.003662109375,0.47454833984375,-1025.0,-3175.0,-2890.0,-309.0,-758.0,-538.0,
64,1.0280389785766602,0.015830039978027344,63.17103439966263,62.25444884260054,2.5689005587030644e-38,-1208.0,-3934.0,-2635.0,49.1875,-34.0,-110.875,-405.375,46.875,228.75,356.375,-19.8125,129.875,-0.82159423828125,0.3558349609375,0.01385498046875,0.44512939453125,-1012.0,-3227.0,-2452.0,-333.0,-707.0,-591.0,
65,1.0446019172668457,0.016562938690185547,60.37575932057003,62.22466082588628,2.5689005587030644e-38,-972.0,-3824.0,-1957.0,49.25,-16.25,-97.5625,-575.625,23.4375,284.0,230.125,-23.1875,142.125,-0.84136962890625,0.39361572265625,0.063720703125,0.36474609375,-585.0,-3272.0,-1245.0,-386.0,-552.0,-711.0,
66,1.0605041980743408,0.015902280807495117,62.8840612303033,62.23454854760833,2.5689005587030644e-38,-658.0,-1592.0,-320.0,49.25,-16.25,-97.5625,-265.125,-66.5625,215.3125,232.6875,-26.375,151.125,-0.84649658203125,0.4193115234375,0.10931396484375,0.30926513671875,-222.0,-1168.0,449.0,-435.0,-423.0,-769.0,
67,1.0783171653747559,0.01781296730041504,56.13887810688903,62.13385277671526,2.5689005587030644e-38,69.0,6.0,115.0,49.25,-16.25,-97.5625,84.8125,-257.375,-7.5625,232.6875,-30.3125,149.6875,-0.84185791015625,0.42138671875,0.1240234375,0.3135986328125,538.0,457.0,866.0,-463.0,-415.0,-757.0,
68,1.0920209884643555,0.01370382308959961,72.97233724207523,62.2698654314551,2.5689005587030644e-38,78.0,-3.0,119.0,39.0,9.5625,-83.875,88.5,-258.5,-16.25,232.125,-32.375,147.9375,-0.831787109375,0.40740966796875,0.15374755859375,0.34423828125,603.0,435.0,821.0,-525.0,-438.0,-701.0,
69,1.1083929538726807,0.016371965408325195,61.080021552665684,62.252290362291426,2.5689005587030644e-38,83.0,-7.0,103.0,39.0,9.5625,-83.875,83.375,-239.3125,-19.625,308.25,-36.125,144.3125,-0.821044921875,0.392333984375,0.18096923828125,0.37310791015625,661.0,440.0,790.0,-553.0,-450.0,-672.0,
70,1.1253409385681152,0.01694798469543457,59.00406555532109,62.203371085982226,2.5689005587030644e-38,82.0,-2.0,100.0,39.0,9.5625,-83.875,81.5625,-230.3125,-21.4375,306.8125,-37.8125,142.375,-0.81549072265625,0.384765625,0.1934814453125,0.3865966796875,684.0,469.0,714.0,-601.0,-472.0,-614.0,
71,1.1442861557006836,0.01894521713256836,52.78377085902696,62.04741676396879,2.5689005587030644e-38,64.0,5.0,93.0,21.0625,4.25,-70.5625,78.875,-213.6875,-25.0625,304.5,-40.75,138.375,-0.80413818359375,0.36956787109375,0.21661376953125,0.4122314453125,704.0,499.0,648.0,-640.0,-493.0,-555.0,
72,1.1609292030334473,0.016643047332763672,60.08515027361545,62.019285768561744,2.5689005587030644e-38,55.0,13.0,77.0,21.0625,4.25,-70.5625,77.6875,-198.625,-28.5625,302.875,-43.1875,134.0625,-0.79248046875,0.35430908203125,0.23712158203125,0.4361572265625,726.0,526.0,574.0,-671.0,-513.0,-497.0,
73,1.1811580657958984,0.020228862762451172,49.43431629069137,61.80375185501569,2.568470079814824e-38,35.0,18.0,70.0,21.0625,4.25,-70.5625,77.3125,-186.0625,-31.75,301.75,-45.1875,129.5625,-0.78057861328125,0.33917236328125,0.25537109375,0.458740234375,731.0,551.0,510.0,-696.0,-532.0,-439.0,
74,1.195864200592041,0.014706134796142578,67.99883272267436,61.879935834992416,2.568470079814824e-38,30.0,19.0,66.0,9.5,4.0,-58.875,77.5625,-180.5625,-33.0,301.3125,-46.0,127.1875,-0.7745361328125,0.33160400390625,0.26373291015625,0.4697265625,736.0,561.0,477.0,-706.0,-541.0,-411.0,
75,1.210237979888916,0.014373779296875,69.57112526539278,61.97128271159034,2.568470079814824e-38,29.0,17.0,50.0,9.5,4.0,-58.875,78.375,-173.375,-35.125,300.6875,-47.375,122.3125,-0.7620849609375,0.3165283203125,0.279296875,0.490966796875,751.0,577.0,405.0,-722.0,-560.0,-354.0,
76,1.2291982173919678,0.018960237503051758,52.7419553599497,61.82892142591275,2.568470079814824e-38,29.0,7.0,32.0,9.5,4.0,-58.875,78.5625,-167.1875,-37.0,300.25,-48.4375,117.25,-0.7491455078125,0.30133056640625,0.293701171875,0.5115966796875,763.0,585.0,330.0,-733.0,-578.0,-298.0,
77,1.2439701557159424,0.01477193832397461,67.69592304464315,61.898591092552515,2.568470079814824e-38,26.0,4.0,29.0,6.1875,0.5625,-49.375,78.0625,-164.9375,-37.9375,300.0625,-48.8125,114.6875,-0.7425537109375,0.293701171875,0.30047607421875,0.5216064453125,764.0,591.0,299.0,-738.0,-586.0,-269.0,
78,1.2602839469909668,0.016313791275024414,61.29782974059189,61.8908145154364,2.568470079814824e-38,22.0,5.0,11.0,6.1875,0.5625,-49.375,78.125,-161.25,-38.8125,299.8125,-49.25,109.5,-0.72900390625,0.27838134765625,0.3133544921875,0.54119873046875,765.0,608.0,225.0,-743.0,-602.0,-213.0,
79,1.277881145477295,0.017597198486328125,56.82722740082376,61.82108584949276,2.568470079814824e-38,17.0,8.0,14.0,6.1875,0.5625,-49.375,76.875,-158.625,-40.0,299.625,-49.4375,104.3125,-0.71502685546875,0.262939453125,0.3255615234375,0.55999755859375,762.0,626.0,172.0,-745.0,-617.0,-185.0,
80,1.2924230098724365,0.014541864395141602,68.76697325922648,61.89923839865408,2.568470079814824e-38,17.0,6.0,14.0,4.25,1.0,-39.75,76.4375,-157.5625,-40.5625,299.5625,-49.375,101.6875,-0.7078857421875,0.25506591796875,0.3314208984375,0.5692138671875,762.0,631.0,144.0,-744.0,-624.0,-129.0,
81,1.3080370426177979,0.015614032745361328,64.04495342800428,61.92485179004813,2.568470079814824e-38,16.0,4.0,0.0,4.25,1.0,-39.75,75.4375,-156.3125,-41.4375,299.4375,-49.0625,96.625,-0.69329833984375,0.23919677734375,0.3427734375,0.5870361328125,758.0,642.0,74.0,-741.0,-637.0,-74.0,
82,1.3249211311340332,0.01688408851623535,59.22736066198794,61.890476401273894,2.568470079814824e-38,15.0,-1.0,6.0,4.25,1.0,-39.75,75.375,-156.1875,-42.0,299.375,-48.8125,94.125,-0.685791015625,0.23114013671875,0.3482666015625,0.59576416015625,753.0,642.0,53.0,-738.0,-643.0,-46.0,
83,1.3407280445098877,0.015806913375854492,63.26345797070846,61.90666357720683,2.568470079814824e-38,13.0,-4.0,6.0,3.875,-0.0625,-34.875,75.1875,-156.0,-42.625,299.25,-48.125,89.1875,-0.67041015625,0.21490478515625,0.35894775390625,0.61279296875,743.0,649.0,-4.0,-730.0,-654.0,8.0,
84,1.3553340435028076,0.014605998992919922,68.46501909829911,61.97734086491718,2.568470079814824e-38,14.0,-7.0,4.0,3.875,-0.0625,-34.875,75.0,-155.6875,-42.8125,299.1875,-47.625,86.8125,-0.66253662109375,0.2066650390625,0.3641357421875,0.62109375,739.0,652.0,-31.0,-724.0,-659.0,36.0,
85,1.3743832111358643,0.01904916763305664,52.49573205837443,61.84592427446158,2.568470079814824e-38,16.0,-10.0,-7.0,3.875,-0.0625,-34.875,74.8125,-156.0,-43.1875,299.125,-46.5,82.25,-0.64630126953125,0.19000244140625,0.374267578125,0.63726806640625,728.0,657.0,-97.0,-711.0,-668.0,90.0,
86,1.3914062976837158,0.017023086547851562,58.74375350140056,61.807970930679865,2.568470079814824e-38,15.0,-10.0,-4.0,3.875,-0.0625,-34.875,74.1875,-155.5625,-43.1875,299.0625,-45.875,80.0625,-0.63800048828125,0.18157958984375,0.37921142578125,0.6451416015625,709.0,664.0,-147.0,-695.0,-675.0,144.0,
87,1.407562017440796,0.016155719757080078,61.897582715976505,61.808999477111385,2.568470079814824e-38,13.0,-9.0,-13.0,4.6875,1.0,-30.25,73.0625,-156.875,-43.4375,298.9375,-43.625,73.8125,-0.6123046875,0.16448974609375,0.38885498046875,0.667724609375,702.0,669.0,-178.0,-686.0,-678.0,171.0,
88,1.4242219924926758,0.016659975051879883,60.02409948910228,61.78812043618442,2.568470079814824e-38,12.0,-10.0,-8.0,4.6875,1.0,-30.25,72.4375,-157.0625,-43.6875,298.875,-42.75,71.8125,-0.60345458984375,0.14715576171875,0.39825439453125,0.6749267578125,678.0,673.0,-232.0,-666.0,-683.0,223.0,
89,1.439866065979004,0.015644073486328125,63.92197025115826,61.811304608728655,2.568470079814824e-38,11.0,-7.0,-6.0,4.6875,1.0,-30.25,71.75,-157.3125,-43.6875,298.8125,-41.875,69.9375,-0.59454345703125,0.13836669921875,0.40289306640625,0.68194580078125,651.0,679.0,-279.0,-642.0,-687.0,275.0,
90,1.4555132389068604,0.015647172927856445,63.90930838501272,61.83385873397692,2.568470079814824e-38,9.0,-7.0,-4.0,7.6875,1.375,-27.375,70.8125,-158.3125,-44.1875,298.6875,-39.9375,66.375,-0.57635498046875,0.1204833984375,0.41180419921875,0.69549560546875,640.0,679.0,-303.0,-629.0,-688.0,300.0,
91,1.4740779399871826,0.018564701080322266,53.86566665810495,61.733506439144776,2.568470079814824e-38,6.0,-7.0,-7.0,7.6875,1.375,-27.375,69.5,-158.75,-44.1875,298.5625,-37.875,63.0625,-0.55780029296875,0.10235595703125,0.42047119140625,0.708251953125,608.0,682.0,-357.0,-602.0,-690.0,349.0,
92,1.488292932510376,0.01421499252319336,70.34826070913421,61.8157877326066,2.568470079814824e-38,7.0,-7.0,-7.0,7.6875,1.375,-27.375,68.875,-158.8125,-44.375,298.5,-36.75,61.5625,-0.54833984375,0.09320068359375,0.42462158203125,0.71435546875,578.0,683.0,-403.0,-571.0,-690.0,397.0,
93,1.5047070980072021,0.016414165496826172,60.92298753740232,61.80604858126007,2.568470079814824e-38,6.0,-7.0,-6.0,9.1875,0.5625,-25.25,68.5625,-159.75,-44.5625,298.4375,-35.625,60.0625,-0.53875732421875,0.08392333984375,0.42877197265625,0.7203369140625,561.0,682.0,-425.0,-555.0,-690.0,420.0,
94,1.5236320495605469,0.018924951553344727,52.84029378787306,61.694685424287265,2.568470079814824e-38,4.0,-7.0,-14.0,9.1875,0.5625,-25.25,66.125,-159.75,-44.75,298.25,-32.0625,55.9375,-0.50958251953125,0.05584716796875,0.44061279296875,0.7369384765625,526.0,682.0,-471.0,-521.0,-688.0,465.0,
95,1.5391061305999756,0.015474081039428711,64.6241930265165,61.724138518613415,2.568470079814824e-38,7.0,-6.0,-5.0,9.1875,0.5625,-25.25,65.625,-160.4375,-44.875,298.125,-30.8125,54.625,-0.49969482421875,0.04638671875,0.4443359375,0.74212646484375,510.0,680.0,-492.0,-502.0,-686.0,486.0,
96,1.5563971996307373,0.01729106903076172,57.83332414097402,61.68091283046285,2.5656002205598866e-38,6.0,-8.0,0.0,8.0,0.5625,-25.25,65.0,-160.5625,-44.8125,298.0625,-29.5625,53.4375,-0.48968505859375,0.036865234375,0.447998046875,0.7470703125,491.0,676.0,-507.0,-484.0,-685.0,507.0,
97,1.5735042095184326,0.017107009887695312,58.455569182740554,61.64584715644747,2.5656002205598866e-38,9.0,-8.0,-6.0,8.0,0.5625,-25.25,63.5625,-160.8125,-44.9375,297.8125,-25.625,50.0625,-0.459228515625,0.008056640625,0.4583740234375,0.7608642578125,432.0,669.0,-570.0,-424.0,-678.0,566.0,
98,1.5881659984588623,0.014661788940429688,68.20450110576297,61.706395990783115,2.5656002205598866e-38,25.0,-21.0,12.0,8.0,0.5625,-25.25,63.0,-160.625,-44.9375,297.75,-24.3125,49.0625,-0.448974609375,-0.0015869140625,0.46160888671875,0.76507568359375,430.0,653.0,-572.0,-404.0,-675.0,585.0,
99,1.6050190925598145,0.01685309410095215,59.33628531413131,61.68150924741137,2.5656002205598866e-38,2445.0,-667.0,948.0,8.0,1.375,-25.25,62.75,-161.125,-45.1875,297.6875,-22.9375,48.0625,-0.43853759765625,-0.01123046875,0.46478271484375,0.76910400390625,2828.0,4.0,345.0,-382.0,-671.0,603.0,
100,1.6227080821990967,0.017688989639282227,56.5323413260011,61.62537864757525,2.5656002205598866e-38,986.0,-271.0,478.0,8.0,1.375,-25.25,34.8125,-34.5625,-91.1875,299.0625,-20.125,46.3125,-0.418701171875,-0.0263671875,0.460205078125,0.78240966796875,350.0,645.0,-629.0,-337.0,-666.0,635.0,
101,1.6396722793579102,0.016964197158813477,58.94767613452701,61.59767489607816,2.5656002205598866e-38,0.0,-22.0,16.0,8.0,1.375,-25.25,34.4375,-12.0625,-83.5,299.875,-19.4375,46.1875,-0.415771484375,-0.02874755859375,0.4552001953125,0.78680419921875,326.0,644.0,-623.0,-326.0,-667.0,639.0,
102,1.658569097518921,0.018896818161010742,52.91896188445476,61.49879444430948,2.5656002205598866e-38,-2.0,-22.0,11.0,6.5,1.375,-25.25,36.75,-12.375,-82.3125,302.3125,-17.4375,45.625,-0.406494140625,-0.0357666015625,0.44012451171875,0.79986572265625,291.0,644.0,-647.0,-294.0,-668.0,654.0,
103,1.6748301982879639,0.01626110076904297,61.49645182100757,61.49877169953594,2.5656002205598866e-38,-2.0,-23.0,6.0,6.5,1.375,-25.25,37.3125,-12.875,-82.0,303.125,-16.8125,45.375,-0.4031982421875,-0.0380859375,0.43511962890625,0.80413818359375,279.0,645.0,-647.0,-284.0,-668.0,658.0,
104,1.690202236175537,0.015372037887573242,65.05318340442032,61.53109833490896,2.5656002205598866e-38,-3.0,-24.0,10.0,6.5,1.375,-25.25,38.25,-12.8125,-81.6875,303.9375,-16.125,45.125,-0.39984130859375,-0.04034423828125,0.43011474609375,0.80841064453125,269.0,643.0,-653.0,-273.0,-668.0,663.0,
105,1.7068901062011719,0.016687870025634766,59.92376489413378,61.515383807388964,2.5656002205598866e-38,-5.0,-23.0,11.0,7.6875,1.0,-25.75,39.125,-12.5625,-81.1875,304.75,-15.5,44.875,-0.39642333984375,-0.04248046875,0.42510986328125,0.8126220703125,258.0,645.0,-659.0,-262.0,-667.0,668.0,
106,1.723567247390747,0.016677141189575195,59.96231540122089,61.50035640354038,2.5656002205598866e-38,-5.0,-23.0,4.0,7.6875,1.0,-25.75,42.25,-13.0625,-79.8125,307.125,-13.625,44.0625,-0.3856201171875,-0.048828125,0.41021728515625,0.82501220703125,223.0,639.0,-677.0,-231.0,-663.0,684.0,
107,1.746824026107788,0.023256778717041016,42.99821622619072,61.25402353115879,2.5656002205598866e-38,-6.0,-23.0,16.0,7.25,-0.875,-23.25,44.875,-13.6875,-78.75,308.625,-12.375,43.4375,-0.37774658203125,-0.05279541015625,0.400390625,0.83319091796875,204.0,635.0,-678.0,-210.0,-658.0,695.0,
108,1.7619531154632568,0.01512908935546875,66.09783156833082,61.2956151058562,2.5656002205598866e-38,-7.0,-24.0,18.0,7.25,-0.875,-23.25,48.3125,-13.75,-77.6875,310.125,-11.125,42.6875,-0.36944580078125,-0.0565185546875,0.39068603515625,0.84124755859375,186.0,628.0,-693.0,-189.0,-652.0,706.0,
109,1.7792751789093018,0.017322063446044922,57.72984281663776,61.26090067013533,2.5656002205598866e-38,-3.0,-27.0,17.0,7.25,-0.875,-23.25,51.4375,-14.25,-76.75,311.625,-9.9375,41.875,-0.36053466796875,-0.0599365234375,0.38104248046875,0.8492431640625,167.0,618.0,-692.0,-169.0,-645.0,718.0,
110,1.795168161392212,0.015892982482910156,62.92085208520852,61.27559655174108,2.5656002205598866e-38,-1.0,-29.0,30.0,8.375,-1.25,-23.6875,53.5625,-13.875,-76.1875,312.375,-9.3125,41.4375,-0.3558349609375,-0.06158447265625,0.37628173828125,0.853271484375,157.0,611.0,-694.0,-159.0,-640.0,718.0,
111,1.8105659484863281,0.015397787094116211,64.9443971323723,61.306797519747,2.5656002205598866e-38,-2.0,-29.0,28.0,8.375,-1.25,-23.6875,58.25,-13.8125,-75.125,313.8125,-8.1875,40.5,-0.34588623046875,-0.064453125,0.36676025390625,0.8612060546875,137.0,601.0,-710.0,-139.0,-630.0,737.0,
112,1.828918218612671,0.018352270126342773,54.4891718090289,61.238386090854185,2.5656002205598866e-38,-5.0,-30.0,34.0,8.375,-1.25,-23.6875,63.4375,-13.4375,-73.6875,315.25,-7.0625,39.4375,-0.33514404296875,-0.06689453125,0.357421875,0.869140625,118.0,588.0,-710.0,-120.0,-618.0,751.0,
113,1.8450660705566406,0.016147851943969727,61.92774144015119,61.244419266735996,2.5656002205598866e-38,0.0,-31.0,42.0,7.6875,-2.75,-23.25,68.4375,-13.0,-72.6875,315.9375,-6.5,38.8125,-0.32928466796875,-0.06787109375,0.35284423828125,0.8731689453125,110.0,579.0,-716.0,-111.0,-610.0,758.0,
114,1.8603909015655518,0.015324831008911133,65.25357437341506,61.277444382289225,2.5656002205598866e-38,0.0,-31.0,44.0,7.6875,-2.75,-23.25,68.4375,-13.0,-72.6875,317.375,-5.4375,37.5625,-0.31732177734375,-0.06964111328125,0.3436279296875,0.881103515625,92.0,563.0,-738.0,-93.0,-595.0,773.0,
115,1.8781630992889404,0.017772197723388672,56.26766118429878,61.230039096997594,2.5656002205598866e-38,2.0,-33.0,46.0,7.6875,-2.75,-23.25,78.6875,-11.875,-71.0625,318.75,-4.4375,36.125,-0.30426025390625,-0.07080078125,0.33453369140625,0.88909912109375,79.0,544.0,-738.0,-76.0,-577.0,789.0,
116,1.8913381099700928,0.013175010681152344,75.90126673905175,61.33223847629987,2.5656002205598866e-38,3.0,-32.0,50.0,7.6875,-2.75,-23.25,78.6875,-11.875,-71.0625,318.75,-4.4375,36.125,-0.30426025390625,-0.07080078125,0.33453369140625,0.88909912109375,79.0,544.0,-738.0,-76.0,-577.0,789.0,
117,1.9056720733642578,0.014333963394165039,69.76437517672693,61.39566278759029,2.5656002205598866e-38,5.0,-36.0,56.0,6.1875,-5.6875,-20.75,85.6875,-10.0,-70.0625,319.4375,-3.9375,35.375,-0.297119140625,-0.0709228515625,0.33001708984375,0.8931884765625,71.0,533.0,-746.0,-68.0,-566.0,797.0,
118,1.9235870838165283,0.017915010452270508,55.81911340014107,61.34372651633735,2.5656002205598866e-38,4.0,-39.0,42.0,6.1875,-5.6875,-20.75,89.75,-9.0,-69.625,321.4375,-2.625,32.8125,-0.27435302734375,-0.07049560546875,0.31646728515625,0.90533447265625,49.0,491.0,-769.0,-45.0,-530.0,823.0,
119,1.938380241394043,0.014793157577514648,67.59882024916595,61.3914635832326,2.564811009264779e-38,3.0,-40.0,55.0,6.1875,-5.6875,-20.75,102.4375,-6.9375,-68.0625,322.125,-2.1875,31.8125,-0.265869140625,-0.06988525390625,0.31201171875,0.909423828125,41.0,476.0,-776.0,-38.0,-517.0,832.0,
120,1.9550111293792725,0.016630887985229492,60.12908035266289,61.38072474201245,2.564811009264779e-38,-2.0,-39.0,69.0,3.875,-9.75,-18.75,107.375,-6.0625,-67.3125,322.75,-1.8125,30.8125,-0.257080078125,-0.06903076171875,0.30755615234375,0.91351318359375,31.0,463.0,-772.0,-31.0,-502.0,841.0,
121,1.9714300632476807,0.016418933868408203,60.90529433973224,61.376765149187115,2.564811009264779e-38,-6.0,-37.0,66.0,3.875,-9.75,-18.75,116.875,-3.25,-65.8125,324.6875,-0.75,27.4375,-0.2283935546875,-0.06500244140625,0.29443359375,0.9256591796875,6.0,417.0,-796.0,-13.0,-452.0,870.0,
122,1.9859259128570557,0.014495849609375,68.98526315789474,61.43230178435231,2.564811009264779e-38,-2.0,-29.0,82.0,3.875,-9.75,-18.75,127.4375,-0.9375,-64.0,325.3125,-0.5,26.1875,-0.218017578125,-0.0631103515625,0.2901611328125,0.9296875,6.0,403.0,-797.0,-8.0,-433.0,879.0,
123,2.0003950595855713,0.014469146728515625,69.11257579752176,61.48785431687795,2.564811009264779e-38,-3.0,-30.0,86.0,2.75,-16.1875,-12.5625,133.875,0.0,-63.0,325.9375,-0.25,24.9375,-0.2071533203125,-0.06103515625,0.285888671875,0.93359375,1.0,382.0,-802.0,-4.0,-413.0,889.0,
124,2.0154759883880615,0.015080928802490234,66.30891327030702,61.52392820078833,2.564811009264779e-38,-2.0,-34.0,82.0,2.75,-16.1875,-12.5625,139.3125,0.8125,-62.125,327.125,0.1875,22.1875,-0.18414306640625,-0.0560302734375,0.2774658203125,0.9412841796875,-5.0,335.0,-825.0,3.0,-370.0,908.0,
125,2.029877185821533,0.01440119743347168,69.43867026472195,61.580080249736845,2.564811009264779e-38,-3.0,-30.0,90.0,2.75,-16.1875,-12.5625,151.6875,2.8125,-60.4375,328.3125,0.5,19.1875,-0.1590576171875,-0.050048828125,0.2691650390625,0.94854736328125,-15.0,291.0,-829.0,9.0,-322.0,926.0,
126,2.045612096786499,0.01573491096496582,63.55294937648681,61.59525561954606,2.564811009264779e-38,-6.0,-24.0,102.0,2.75,-20.5625,-6.75,164.1875,5.25,-58.6875,328.875,0.625,17.5625,-0.145751953125,-0.04669189453125,0.26507568359375,0.9520263671875,-18.0,272.0,-832.0,11.0,-296.0,934.0,
127,2.061143159866333,0.015531063079833984,64.38709281262473,61.61629258602108,2.564811009264779e-38,-8.0,-17.0,100.0,2.75,-20.5625,-6.75,170.625,6.375,-57.75,329.9375,0.8125,14.1875,-0.11749267578125,-0.0391845703125,0.2569580078125,0.95843505859375,-16.0,227.0,-855.0,14.0,-240.0,950.0,
128,2.080441951751709,0.019298791885375977,51.816715053431345,61.52538882049817,2.564811009264779e-38,2.0,-6.0,107.0,2.75,-20.5625,-6.75,184.3125,8.9375,-56.25,330.5,0.875,12.375,-0.087158203125,-0.030517578125,0.248779296875,0.96417236328125,-13.0,178.0,-846.0,15.0,-179.0,963.0,
129,2.096320152282715,0.01587820053100586,62.97942881167602,61.53640218529118,2.564811009264779e-38,-5.0,11.0,121.0,0.5,-27.0,0.25,198.3125,11.875,-55.75,331.5625,0.8125,8.625,-0.07110595703125,-0.02581787109375,0.24462890625,0.9666748046875,-20.0,158.0,-848.0,14.0,-147.0,969.0,
130,2.1113390922546387,0.015018939971923828,66.58259516779376,61.572298110189735,2.564811009264779e-38,-10.0,13.0,122.0,0.5,-27.0,0.25,204.6875,14.0625,-55.375,332.125,0.75,6.625,-0.0374755859375,-0.01544189453125,0.23614501953125,0.97088623046875,-27.0,94.0,-865.0,12.0,-78.0,977.0,
131,2.1317200660705566,0.02038097381591797,49.06536895793365,61.452721717572885,2.564811009264779e-38,-15.0,17.0,115.0,0.5,-27.0,0.25,217.0,17.5,-54.8125,333.125,0.5625,2.4375,-0.00201416015625,-0.00396728515625,0.22747802734375,0.9737548828125,-9.0,20.0,-856.0,6.0,-5.0,980.0,
132,2.1478121280670166,0.01609206199645996,62.14244018075413,61.45788929816551,2.564811009264779e-38,0.0,14.0,119.0,-1.25,-34.875,12.6875,226.9375,21.3125,-55.0,334.1875,0.125,-1.8125,0.0162353515625,0.00213623046875,0.22296142578125,0.97467041015625,-1.0,-17.0,-860.0,2.0,32.0,980.0,
133,2.162497043609619,0.014684915542602539,68.0970889549137,61.50297425516832,2.564811009264779e-38,0.0,14.0,114.0,-1.25,-34.875,12.6875,231.0625,22.6875,-54.9375,334.75,-0.0625,-4.0625,0.0537109375,0.01495361328125,0.21368408203125,0.97528076171875,13.0,-91.0,-867.0,-6.0,108.0,974.0,
134,2.1788530349731445,0.01635599136352539,61.13967522812746,61.50024707914805,2.564811009264779e-38,4.0,28.0,100.0,-1.25,-34.875,12.6875,238.9375,25.875,-55.375,335.8125,-0.625,-8.6875,0.092041015625,0.02850341796875,0.2039794921875,0.9742431640625,20.0,-150.0,-870.0,-17.0,187.0,962.0,
135,2.1944050788879395,0.015552043914794922,64.30022995554192,61.520090934356595,2.564811009264779e-38,3.0,42.0,87.0,-4.25,-41.1875,28.5,236.625,29.8125,-57.5625,336.875,-1.375,-13.25,0.11083984375,0.03546142578125,0.1988525390625,0.97308349609375,27.0,-182.0,-866.0,-24.0,225.0,954.0,
136,2.2108070850372314,0.016402006149291992,60.96815175521477,61.51599609049999,2.564811009264779e-38,1146.0,289.0,3909.0,-4.25,-41.1875,28.5,-562.3125,500.3125,-261.875,338.75,-6.625,-7.6875,0.032470703125,0.13165283203125,0.17779541015625,0.97467041015625,-3642.0,-2825.0,2914.0,-240.0,108.0,944.0,
137,2.2283883094787598,0.01758122444152832,56.87885979305949,61.47941066521101,2.564811009264779e-38,-1629.0,3269.0,919.0,-4.25,-41.1875,28.5,590.6875,157.0625,115.5,338.8125,-15.5,-12.5625,0.0986328125,0.17315673828125,0.1875,0.96185302734375,1072.0,2461.0,43.0,-290.0,249.0,902.0,
138,2.2448251247406006,0.01643681526184082,60.839036277396616,61.47472178526446,2.564811009264779e-38,1189.0,1607.0,185.0,-11.75,-53.0625,35.5,-338.8125,-113.75,231.6875,335.3125,-15.5625,-12.6875,0.07623291015625,0.15655517578125,0.21014404296875,0.9620361328125,1453.0,1398.0,-735.0,-263.0,208.0,921.0,
139,2.261033058166504,0.01620793342590332,61.69818037392801,61.47632362028205,2.564811009264779e-38,-625.0,47.0,486.0,-11.75,-53.0625,35.5,-541.625,-373.3125,159.375,333.4375,-11.75,-7.6875,0.0408935546875,0.1153564453125,0.2275390625,0.966064453125,-1698.0,-1351.0,-110.0,-136.0,99.0,966.0,
140,2.279306173324585,0.018273115158081055,54.72520647678196,61.42220015830373,2.564811009264779e-38,778.0,445.0,1676.0,-11.75,-53.0625,35.5,171.75,-370.25,0.3125,333.0625,-4.375,-7.4375,0.05426025390625,0.05267333984375,0.23211669921875,0.9697265625,862.0,624.0,1298.0,-26.0,177.0,964.0,
141,2.2950150966644287,0.01570892333984375,63.65808644973288,61.43750435669429,2.564811009264779e-38,329.0,879.0,2420.0,-29.0,-63.5625,40.5,328.875,-224.375,6.125,333.9375,0.5625,-13.625,0.1168212890625,0.02166748046875,0.223876953125,0.96734619140625,319.0,648.0,1467.0,10.0,231.0,952.0,
142,2.3102622032165527,0.015247106552124023,65.58621444543479,61.464884722736215,2.564811009264779e-38,103.0,998.0,2543.0,-29.0,-63.5625,40.5,302.625,-194.0,15.0,334.0,2.4375,-16.5625,0.1451416015625,0.0113525390625,0.2225341796875,0.9639892578125,61.0,719.0,1604.0,66.0,319.0,924.0,
143,2.3283491134643555,0.018086910247802734,55.28860298963908,61.41690658546905,2.5671068966687287e-38,267.0,836.0,2289.0,-29.0,-63.5625,40.5,183.25,-136.75,6.0,334.3125,5.125,-20.8125,0.18603515625,-0.0047607421875,0.2181396484375,0.9580078125,178.0,488.0,1377.0,88.0,347.0,912.0,
144,2.3444931507110596,0.0161440372467041,61.94237443326983,61.42052492511072,2.5671068966687287e-38,26.0,333.0,1700.0,-16.6875,-60.5625,66.5,135.4375,-130.25,43.4375,333.9375,7.75,-23.5,0.212890625,-0.02197265625,0.22015380859375,0.95166015625,-106.0,-53.0,809.0,132.0,387.0,890.0,
145,2.3606150150299072,0.016121864318847656,62.027565808932266,61.42467072216049,2.5671068966687287e-38,61.0,212.0,1620.0,-16.6875,-60.5625,66.5,163.4375,-130.0625,52.75,333.5625,9.125,-25.0625,0.22833251953125,-0.03033447265625,0.22235107421875,0.9473876953125,-94.0,-198.0,743.0,155.0,411.0,876.0,
146,2.378277063369751,0.01766204833984375,56.618574514038876,61.388978705926895,2.5671068966687287e-38,38.0,553.0,1894.0,-16.6875,-60.5625,66.5,270.5,-74.125,55.875,332.4375,11.25,-29.75,0.2701416015625,-0.03826904296875,0.22906494140625,0.93438720703125,-153.0,75.0,1060.0,191.0,477.0,834.0,
147,2.3942601680755615,0.015983104705810547,62.56606700677228,61.39683646750655,2.5671068966687287e-38,-44.0,1030.0,1860.0,-7.25,-52.75,85.6875,274.625,-9.25,40.4375,331.0625,12.0,-35.1875,0.3155517578125,-0.03240966796875,0.2364501953125,0.91839599609375,-249.0,477.0,1077.0,204.0,553.0,783.0,
148,2.4103341102600098,0.016073942184448242,62.21249202747,61.40227587951896,2.5671068966687287e-38,-80.0,1048.0,1803.0,-7.25,-52.75,85.6875,211.0625,-9.25,38.0,330.5,12.3125,-37.1875,0.33197021484375,-0.02996826171875,0.23968505859375,0.911865234375,-290.0,469.0,1040.0,209.0,579.0,762.0,
149,2.4322099685668945,0.021875858306884766,45.712492098437124,61.26115833979321,2.5671068966687287e-38,-118.0,901.0,1236.0,-7.25,-52.75,85.6875,63.0625,-46.5,42.1875,329.25,13.9375,-39.875,0.35546875,-0.03619384765625,0.2471923828125,0.90069580078125,-355.0,291.0,505.0,236.0,610.0,730.0,
150,2.456003189086914,0.02379322052001953,42.028778708565476,61.07483926181976,2.5671068966687287e-38,33.0,798.0,1029.0,-5.75,-33.375,103.0625,77.9375,-42.875,21.375,328.875,14.875,-41.25,0.367919921875,-0.04156494140625,0.2489013671875,0.89495849609375,-219.0,173.0,317.0,252.0,625.0,711.0,
151,2.4738171100616455,0.017813920974731445,56.13587269296144,61.0392738355008,2.5671068966687287e-38,55.0,928.0,911.0,-5.75,-33.375,103.0625,114.375,-41.25,2.0,328.6875,15.625,-43.5,0.38580322265625,-0.04388427734375,0.24835205078125,0.887451171875,-209.0,278.0,226.0,264.0,650.0,684.0,
152,2.4888839721679688,0.015066862106323242,66.3708204763035,61.071549216333615,2.5671068966687287e-38,108.0,844.0,929.0,-5.75,-33.375,103.0625,101.125,-40.625,-10.75,328.8125,15.8125,-44.5625,0.394287109375,-0.04449462890625,0.24658203125,0.8841552734375,-159.0,182.0,257.0,267.0,662.0,671.0,
153,2.5059289932250977,0.017045021057128906,58.668158675096514,61.05520164922591,2.5671068966687287e-38,270.0,412.0,699.0,-1.25,-24.75,109.25,55.0,-44.875,15.1875,328.875,16.5,-45.9375,0.40557861328125,-0.04876708984375,0.244873046875,0.8792724609375,-8.0,-263.0,45.0,278.0,676.0,653.0,
154,2.5247418880462646,0.018812894821166992,53.15503060564969,60.9963342110867,2.5671068966687287e-38,99.0,771.0,814.0,-1.25,-24.75,109.25,68.375,-38.4375,11.5625,328.625,17.3125,-47.3125,0.41656494140625,-0.053466796875,0.24505615234375,0.87384033203125,-192.0,83.0,179.0,291.0,688.0,634.0,
155,2.5400431156158447,0.015301227569580078,65.35423353797252,61.02258621008469,2.5671068966687287e-38,293.0,984.0,1103.0,-1.25,-24.75,109.25,70.25,-32.125,3.125,328.625,17.5,-48.0625,0.42242431640625,-0.05450439453125,0.24444580078125,0.87109375,-2.0,289.0,479.0,295.0,695.0,624.0,
156,2.5548648834228516,0.014821767807006836,67.46833529042739,61.05998051489938,2.5671068966687287e-38,58.0,1183.0,1683.0,2.375,-21.6875,116.75,42.3125,43.4375,-17.875,328.5,17.0625,-49.0625,0.42962646484375,-0.04827880859375,0.24456787109375,0.867919921875,-229.0,475.0,1069.0,288.0,708.0,614.0,
157,2.5676841735839844,0.012819290161132812,78.0074393691415,61.144591540967724,2.5671068966687287e-38,-81.0,1188.0,1667.0,2.375,-21.6875,116.75,-10.25,50.5625,-9.375,328.375,16.6875,-48.875,0.4278564453125,-0.04443359375,0.24566650390625,0.86865234375,-363.0,480.0,1050.0,281.0,707.0,617.0,
158,2.582123041152954,0.014438867568969727,69.2575089579102,61.18995782999202,2.5671068966687287e-38,155.0,911.0,597.0,2.375,-21.6875,116.75,-4.25,-24.3125,-30.5,328.875,16.5625,-48.8125,0.427490234375,-0.044921875,0.241943359375,0.869873046875,-123.0,203.0,-20.0,279.0,708.0,618.0,
159,2.5973830223083496,0.015259981155395508,65.53088039996875,61.21546134489372,2.5671068966687287e-38,228.0,723.0,704.0,4.875,-16.5625,119.5,-0.3125,-22.75,-32.6875,329.3125,16.4375,-48.9375,0.4281005859375,-0.04541015625,0.23876953125,0.87042236328125,-49.0,13.0,86.0,278.0,709.0,617.0,
160,2.6119282245635986,0.014545202255249023,68.75119248610815,61.25742602545398,2.5671068966687287e-38,366.0,595.0,462.0,4.875,-16.5625,119.5,20.375,-14.6875,-19.0625,329.8125,16.3125,-49.375,0.4310302734375,-0.04583740234375,0.2342529296875,0.87017822265625,90.0,-119.0,-149.0,276.0,714.0,612.0,
161,2.6321780681610107,0.02024984359741211,49.38309746391315,61.166074570511014,2.5671068966687287e-38,252.0,680.0,627.0,4.875,-16.5625,119.5,26.125,-10.6875,-8.6875,330.0625,16.3125,-50.0,0.43560791015625,-0.0455322265625,0.23211669921875,0.86846923828125,-23.0,-40.0,23.0,275.0,721.0,604.0,
162,2.648719310760498,0.016541242599487305,60.45495034520532,61.161633602273504,2.5671068966687287e-38,193.0,757.0,526.0,4.25,-17.6875,119.25,13.25,-17.3125,-6.4375,330.1875,16.375,-50.1875,0.43695068359375,-0.04632568359375,0.23101806640625,0.8680419921875,-83.0,34.0,-75.0,276.0,722.0,601.0,
163,2.663496971130371,0.014777660369873047,67.66971056113066,61.19774182841434,2.5671068966687287e-38,201.0,736.0,541.0,4.25,-17.6875,119.25,-12.375,-27.625,-4.3125,330.5,16.625,-50.1875,0.43701171875,-0.0499267578125,0.2283935546875,0.8685302734375,-79.0,14.0,-59.0,280.0,722.0,601.0,
164,2.6806468963623047,0.017149925231933594,58.309292109214255,61.17926244689352,2.5671068966687287e-38,316.0,612.0,637.0,4.25,-17.6875,119.25,-18.3125,-28.9375,-4.9375,330.9375,16.875,-50.0,0.435546875,-0.05450439453125,0.225341796875,0.86981201171875,31.0,-106.0,34.0,285.0,718.0,602.0,
165,2.6950161457061768,0.01436924934387207,69.59305779090411,61.22412300307943,2.5740663053619514e-38,324.0,584.0,600.0,5.75,-15.375,119.0625,-14.0,-23.75,2.0625,331.0,17.0625,-49.9375,0.4349365234375,-0.05657958984375,0.22454833984375,0.87017822265625,36.0,-132.0,-3.0,288.0,717.0,603.0,
166,2.7116639614105225,0.016647815704345703,60.06794030876751,61.217024809243696,2.5740663053619514e-38,192.0,794.0,672.0,5.75,-15.375,119.0625,5.375,-10.75,3.125,331.0625,17.3125,-50.0,0.43560791015625,-0.05889892578125,0.2242431640625,0.86981201171875,-99.0,76.0,71.0,291.0,717.0,601.0,
167,2.7319750785827637,0.02031111717224121,49.234120975220385,61.127936820943745,2.5740663053619514e-38,208.0,733.0,571.0,5.75,-15.375,119.0625,7.3125,-12.625,-1.25,331.125,17.4375,-50.1875,0.4371337890625,-0.0601806640625,0.223388671875,0.869140625,-85.0,14.0,-27.0,294.0,718.0,598.0,
168,2.747887134552002,0.01591205596923828,62.845430026970334,61.137882225060764,2.5740663053619514e-38,200.0,758.0,592.0,9.875,-16.375,118.1875,3.4375,-15.9375,-6.1875,331.25,17.5,-50.25,0.437744140625,-0.06103515625,0.22235107421875,0.8690185546875,-94.0,38.0,-5.0,294.0,719.0,597.0,
169,2.7629170417785645,0.0150299072265625,66.53401015228427,61.16723645499328,2.5740663053619514e-38,286.0,662.0,557.0,9.875,-16.375,118.1875,-17.625,-23.5,-12.25,331.75,17.5625,-50.1875,0.4368896484375,-0.06390380859375,0.21881103515625,0.87017822265625,-9.0,-55.0,-41.0,296.0,718.0,598.0,
170,2.7792611122131348,0.016344070434570312,61.184268876181584,61.167336617979174,2.5740663053619514e-38,347.0,594.0,538.0,9.875,-16.375,118.1875,-19.5625,-22.375,-9.4375,331.9375,17.625,-50.0625,0.4359130859375,-0.0655517578125,0.2171630859375,0.87091064453125,29.0,-103.0,-86.0,297.0,716.0,599.0,
171,2.7949490547180176,0.015687942504882812,63.74322188449848,61.181794963791276,2.5740663053619514e-38,330.0,638.0,626.0,10.5,-16.75,118.5625,-5.25,-9.0,-0.1875,332.1875,17.75,-49.9375,0.43511962890625,-0.067626953125,0.21575927734375,0.87152099609375,30.0,-76.0,26.0,299.0,715.0,600.0,
172,2.8102989196777344,0.015349864959716797,65.14715293094343,61.203453766307454,2.5740663053619514e-38,260.0,731.0,626.0,10.5,-16.75,118.5625,6.0625,1.875,4.625,332.0625,17.8125,-50.0,0.43548583984375,-0.06781005859375,0.2164306640625,0.87115478515625,-40.0,16.0,27.0,300.0,715.0,599.0,
173,2.8283541202545166,0.018055200576782227,55.385704287657305,61.16631533551823,2.5740663053619514e-38,243.0,732.0,621.0,10.5,-16.75,118.5625,7.625,2.25,2.5,332.0,17.8125,-50.0625,0.43603515625,-0.06756591796875,0.21673583984375,0.870849609375,-56.0,16.0,22.0,300.0,715.0,598.0,
174,2.844702959060669,0.016348838806152344,61.16642361313656,61.1663159578023,2.5740663053619514e-38,250.0,671.0,563.0,11.875,-17.6875,117.375,1.625,-0.3125,-0.4375,332.0,17.8125,-50.125,0.4365234375,-0.0673828125,0.21685791015625,0.87054443359375,-49.0,-44.0,-34.0,300.0,716.0,597.0,
175,2.8605880737304688,0.015885114669799805,62.95201644978762,61.176232120615666,2.5740663053619514e-38,292.0,699.0,569.0,11.875,-17.6875,117.375,-5.9375,-4.75,-1.0,332.0625,17.875,-50.0625,0.43609619140625,-0.068115234375,0.21636962890625,0.870849609375,-8.0,-16.0,-29.0,301.0,716.0,598.0,
176,2.878437042236328,0.017848968505859375,56.0256465056636,61.14429373215031,2.5740663053619514e-38,315.0,689.0,555.0,11.875,-17.6875,117.375,-8.625,-4.4375,2.4375,332.0625,17.9375,-50.0,0.435546875,-0.06866455078125,0.21630859375,0.87109375,12.0,-25.0,-44.0,302.0,715.0,599.0,
177,2.89709210395813,0.018655061721801758,53.6047542973992,61.095744853322095,2.5740663053619514e-38,244.0,701.0,577.0,11.5625,-18.0625,117.375,-7.75,-8.1875,8.0625,332.0,18.125,-49.8125,0.4344482421875,-0.0704345703125,0.21685791015625,0.871337890625,-60.0,-11.0,-23.0,305.0,712.0,600.0,
178,2.911670207977295,0.014578104019165039,68.59602584021589,61.13329714070009,2.5740663053619514e-38,222.0,679.0,649.0,11.5625,-18.0625,117.375,-10.0625,-3.25,1.625,332.0,18.1875,-49.6875,0.43328857421875,-0.07147216796875,0.217041015625,0.871826171875,-83.0,-30.0,47.0,306.0,710.0,602.0,
179,2.9284932613372803,0.01682305335998535,59.442241464831845,61.123582684380374,2.5740663053619514e-38,286.0,619.0,604.0,11.5625,-18.0625,117.375,-13.6875,-3.8125,4.125,332.0,18.25,-49.5625,0.43231201171875,-0.0721435546875,0.21710205078125,0.87225341796875,-21.0,-89.0,1.0,307.0,708.0,603.0,
180,2.944343090057373,0.015849828720092773,63.092164442906785,61.13417984739426,2.5740663053619514e-38,249.0,643.0,645.0,11.5625,-18.0625,117.375,-13.8125,-5.8125,1.75,332.0625,18.375,-49.3125,0.43048095703125,-0.07379150390625,0.216796875,0.873046875,-33.0,-65.0,52.0,309.0,705.0,606.0,
181,2.960347890853882,0.01600480079650879,62.481252513816685,61.141462650118605,2.5740663053619514e-38,290.0,680.0,578.0,11.75,-18.75,115.6875,-1.375,-6.5,5.125,332.0625,18.5,-49.1875,0.4298095703125,-0.07525634765625,0.216796875,0.873291015625,-20.0,-23.0,-28.0,311.0,704.0,607.0,
182,2.9781980514526367,0.017850160598754883,56.02190492727297,61.11077801264031,2.5740663053619514e-38,235.0,756.0,619.0,11.75,-18.75,115.6875,7.0,-1.8125,5.4375,332.0,18.5625,-49.25,0.4302978515625,-0.075439453125,0.21722412109375,0.8729248046875,-77.0,51.0,13.0,312.0,704.0,606.0,
183,2.993291139602661,0.015093088150024414,66.25549324697892,61.136719238173406,2.5740663053619514e-38,215.0,745.0,585.0,12.5625,-21.0625,116.75,12.75,-4.375,1.8125,331.9375,18.625,-49.5,0.4322509765625,-0.0758056640625,0.21759033203125,0.871826171875,-99.0,38.0,-17.0,314.0,706.0,602.0,
184,3.0091731548309326,0.015882015228271484,62.96430179842075,61.14636497557677,2.5740663053619514e-38,246.0,637.0,620.0,12.5625,-21.0625,116.75,2.4375,-12.875,-1.4375,332.0625,18.75,-49.6875,0.43316650390625,-0.076171875,0.21728515625,0.87127685546875,-84.0,-27.0,4.0,314.0,707.0,601.0,
185,3.0259242057800293,0.01675105094909668,59.69774690786945,61.13834564878346,2.5740663053619514e-38,274.0,626.0,639.0,12.5625,-21.0625,116.75,-5.125,-13.875,-1.0625,332.125,18.8125,-49.6875,0.4334716796875,-0.078125,0.216064453125,0.87139892578125,-42.0,-81.0,39.0,317.0,707.0,600.0,
186,3.044182062149048,0.018257856369018555,54.77094242546912,61.10015636472571,2.5740663053619514e-38,281.0,629.0,649.0,12.5625,-21.0625,116.75,-9.5625,-12.375,-0.0625,332.1875,18.9375,-49.625,0.4329833984375,-0.07916259765625,0.215576171875,0.87164306640625,-15.0,-55.0,-5.0,319.0,705.0,601.0,
187,3.060058116912842,0.015876054763793945,62.98794095120816,61.10995048311569,2.5740663053619514e-38,276.0,693.0,604.0,12.5625,-18.375,118.0,3.25,1.0625,4.5625,332.125,19.0625,-49.5625,0.43255615234375,-0.0804443359375,0.21588134765625,0.87164306640625,-44.0,-12.0,3.0,320.0,705.0,600.0,
188,3.0780580043792725,0.017999887466430664,55.55590288355829,61.077471487712415,2.572703122215856e-38,254.0,704.0,536.0,12.5625,-18.375,118.0,8.1875,-1.25,5.5625,332.0625,19.125,-49.625,0.43316650390625,-0.08062744140625,0.21630859375,0.87127685546875,-66.0,-1.0,-63.0,321.0,705.0,599.0,
189,3.093175172805786,0.015117168426513672,66.14995426300351,61.1022620579746,2.572703122215856e-38,268.0,695.0,612.0,12.5625,-18.375,118.0,10.9375,-4.0625,3.25,332.0625,19.1875,-49.75,0.43402099609375,-0.08087158203125,0.21649169921875,0.87078857421875,-56.0,-43.0,39.0,323.0,707.0,596.0,
190,3.1093382835388184,0.016163110733032227,61.86927853908221,61.1062491996709,2.572703122215856e-38,265.0,628.0,624.0,14.0625,-19.6875,117.5625,3.75,-9.4375,1.0,332.0625,19.3125,-49.9375,0.43585205078125,-0.0823974609375,0.216064453125,0.86981201171875,-58.0,-79.0,28.0,324.0,708.0,595.0,
191,3.1251189708709717,0.01578068733215332,63.368595990270286,61.11767320869971,2.572703122215856e-38,297.0,644.0,642.0,14.0625,-19.6875,117.5625,2.25,-8.4375,0.0,332.125,19.375,-50.0,0.4361572265625,-0.08294677734375,0.21575927734375,0.86968994140625,-11.0,-59.0,20.0,326.0,708.0,594.0,
192,3.1400582790374756,0.014939308166503906,66.93750398978615,61.14536194495533,2.572703122215856e-38,313.0,642.0,590.0,14.0625,-19.6875,117.5625,4.0,-6.9375,-1.375,332.125,19.4375,-50.0625,0.43658447265625,-0.0833740234375,0.2154541015625,0.8695068359375,-12.0,-66.0,-2.0,326.0,709.0,593.0,
193,3.1578712463378906,0.01781296730041504,56.13887810688903,61.11712129613188,2.572703122215856e-38,327.0,664.0,591.0,14.0625,-18.1875,117.5625,9.125,-3.6875,-1.5,332.125,19.4375,-50.1875,0.4373779296875,-0.0833740234375,0.21527099609375,0.869140625,0.0,-46.0,0.0,326.0,710.0,591.0,
194,3.1781771183013916,0.020305871963500977,49.24683863847174,61.04128019891013,2.572703122215856e-38,263.0,736.0,562.0,14.0625,-18.1875,117.5625,14.375,4.8125,1.125,332.0,19.375,-50.5625,0.4404296875,-0.0816650390625,0.2159423828125,0.86761474609375,-68.0,18.0,-38.0,325.0,714.0,587.0,
195,3.192399263381958,0.014222145080566406,70.31288137866291,61.0825852006435,2.572703122215856e-38,242.0,725.0,554.0,14.0625,-18.1875,117.5625,11.4375,3.125,3.0625,331.9375,19.375,-50.6875,0.441162109375,-0.08135986328125,0.21636962890625,0.86712646484375,-82.0,9.0,-31.0,325.0,715.0,585.0,
196,3.207914113998413,0.015514850616455078,64.4543750192089,61.098892624560136,2.572703122215856e-38,260.0,713.0,592.0,15.1875,-17.75,118.0625,8.625,1.3125,3.0,331.875,19.375,-50.75,0.4417724609375,-0.0811767578125,0.2166748046875,0.86676025390625,-65.0,-2.0,8.0,325.0,716.0,584.0,
197,3.2242300510406494,0.016315937042236328,61.28976824385539,61.099858534106914,2.572703122215856e-38,252.0,677.0,505.0,15.1875,-17.75,118.0625,2.625,-10.875,3.5,331.875,19.5625,-50.875,0.4427490234375,-0.0828857421875,0.21685791015625,0.8660888671875,-49.0,-26.0,30.0,329.0,716.0,582.0,
198,3.239954948425293,0.015724897384643555,63.59341975589417,61.111960861132786,2.572703122215856e-38,272.0,678.0,646.0,15.1875,-17.75,118.0625,1.3125,-10.8125,2.3125,331.875,19.6875,-50.875,0.44305419921875,-0.083740234375,0.21661376953125,0.86590576171875,-58.0,-38.0,64.0,330.0,716.0,581.0,
199,3.254866123199463,0.014911174774169922,67.06379712832977,61.13922738069095,2.572703122215856e-38,276.0,668.0,612.0,14.5,-16.6875,118.0625,1.5625,-8.75,2.0,331.875,19.75,-50.9375,0.44329833984375,-0.08447265625,0.2164306640625,0.86572265625,-54.0,-48.0,30.0,331.0,716.0,581.0,
200,3.2711081504821777,0.016242027282714844,61.56866889789208,61.14135968586639,2.572703122215856e-38,294.0,681.0,592.0,14.5,-16.6875,118.0625,7.4375,-1.0625,0.875,331.875,19.8125,-51.125,0.44464111328125,-0.085205078125,0.21649169921875,0.864990234375,-73.0,-41.0,-40.0,333.0,718.0,578.0,
201,3.287396192550659,0.016288042068481445,61.394733375294585,61.14261507495573,2.572703122215856e-38,305.0,697.0,570.0,14.5,-16.6875,118.0625,11.8125,2.3125,-1.1875,331.8125,19.8125,-51.1875,0.44549560546875,-0.08477783203125,0.21661376953125,0.86456298828125,-27.0,-21.0,-6.0,333.0,719.0,577.0,
202,3.3035242557525635,0.016128063201904297,62.00372527569997,61.14681908215114,2.572703122215856e-38,322.0,690.0,581.0,16.25,-16.25,118.875,11.375,3.5625,0.8125,331.8125,19.8125,-51.3125,0.44622802734375,-0.0843505859375,0.21685791015625,0.8641357421875,-10.0,-30.0,5.0,332.0,720.0,576.0,
203,3.3195910453796387,0.016066789627075195,62.24018756770393,61.15211097540007,2.572703122215856e-38,295.0,724.0,554.0,16.25,-16.25,118.875,-0.6875,-3.6875,2.3125,331.6875,19.875,-51.4375,0.44696044921875,-0.0845947265625,0.2174072265625,0.86358642578125,-36.0,6.0,-9.0,333.0,721.0,574.0,
204,3.3359298706054688,0.016338825225830078,61.203910696045526,61.152364681747386,2.572703122215856e-38,297.0,727.0,565.0,16.25,-16.25,118.875,-3.5,-6.0625,0.625,331.75,19.9375,-51.375,0.44683837890625,-0.08514404296875,0.2171630859375,0.8636474609375,-38.0,-4.0,6.0,334.0,720.0,574.0,
205,3.350525140762329,0.014595270156860352,68.51534704412173,61.18443867380064,2.572703122215856e-38,306.0,694.0,581.0,16.0,-15.5,118.375,-5.375,-7.625,-1.125,331.8125,19.9375,-51.375,0.44659423828125,-0.08575439453125,0.216796875,0.86383056640625,-28.0,-26.0,5.0,335.0,720.0,575.0,
206,3.364090919494629,0.013565778732299805,73.71489832861738,61.234968058160085,2.572703122215856e-38,317.0,670.0,586.0,16.0,-15.5,118.375,-2.6875,-6.3125,-1.6875,331.9375,20.0,-51.3125,0.44622802734375,-0.0867919921875,0.2159423828125,0.8641357421875,-18.0,-56.0,13.0,336.0,719.0,575.0,
207,3.3820581436157227,0.01796722412109375,55.65690021231423,61.205334506372054,2.572703122215856e-38,288.0,672.0,504.0,16.0,-15.5,118.375,7.375,-5.5,-1.5625,331.9375,20.0625,-51.4375,0.44696044921875,-0.0872802734375,0.2154541015625,0.86383056640625,-24.0,-23.0,-11.0,336.0,720.0,573.0,
208,3.4026131629943848,0.02055501937866211,48.6499176467859,61.12948784837909,2.572703122215856e-38,321.0,708.0,591.0,16.25,-16.6875,118.375,9.375,-3.625,-0.8125,331.9375,20.0625,-51.5625,0.44775390625,-0.08734130859375,0.21527099609375,0.86346435546875,-15.0,-12.0,18.0,336.0,721.0,572.0,
209,3.417370319366455,0.014757156372070312,67.76373271293784,61.158136364556015,2.572703122215856e-38,267.0,720.0,586.0,16.25,-16.6875,118.375,3.3125,-5.875,-1.0625,332.0,20.125,-51.6875,0.44873046875,-0.087890625,0.21490478515625,0.86297607421875,-70.0,-2.0,-14.0,337.0,722.0,570.0,
210,3.431328058242798,0.013957738876342773,71.64484225270314,61.2007935223606,2.572703122215856e-38,267.0,705.0,558.0,16.25,-16.6875,118.375,-3.125,-7.3125,-1.625,332.125,20.1875,-51.6875,0.44879150390625,-0.0888671875,0.21405029296875,0.863037109375,-63.0,-25.0,12.0,338.0,722.0,570.0,
211,3.447317123413086,0.015989065170288086,62.54274339054322,61.20701764480988,2.5729183616599765e-38,309.0,675.0,596.0,16.5625,-14.75,118.5,-3.625,-7.375,-1.125,332.1875,20.25,-51.6875,0.44866943359375,-0.08941650390625,0.21368408203125,0.8631591796875,-30.0,-46.0,26.0,339.0,722.0,570.0,
212,3.4613990783691406,0.014081954956054688,71.01286739807666,61.246910627793056,2.5729183616599765e-38,331.0,656.0,576.0,16.5625,-14.75,118.5,-2.25,-5.25,0.5,332.1875,20.3125,-51.6875,0.44879150390625,-0.09014892578125,0.21356201171875,0.863037109375,-8.0,-69.0,2.0,340.0,721.0,569.0,
213,3.479893207550049,0.018494129180908203,54.07121309784711,61.20877489512344,2.5729183616599765e-38,312.0,668.0,588.0,16.5625,-14.75,118.5,11.3125,5.875,4.5,332.0,20.3125,-51.8125,0.45001220703125,-0.0894775390625,0.2147216796875,0.8621826171875,-60.0,-2.0,37.0,340.0,722.0,568.0,
214,3.4961581230163574,0.016264915466308594,61.48202873057755,61.21004613354519,2.5729183616599765e-38,275.0,713.0,568.0,17.375,-15.1875,118.75,8.125,6.125,4.625,331.9375,20.3125,-51.875,0.450439453125,-0.0894775390625,0.2147216796875,0.86187744140625,-60.0,-2.0,37.0,340.0,723.0,567.0,
215,3.5223302841186523,0.026172161102294922,38.208537540765576,61.03913678094975,2.5729183616599765e-38,280.0,716.0,547.0,17.375,-15.1875,118.75,3.625,0.4375,1.8125,331.8125,20.3125,-52.0,0.451171875,-0.0888671875,0.2159423828125,0.861328125,-40.0,-29.0,18.0,341.0,724.0,565.0,
216,3.536623954772949,0.014293670654296875,69.96103549506272,61.07519565615428,2.5729183616599765e-38,320.0,690.0,574.0,17.375,-15.1875,118.75,1.6875,-1.375,0.125,331.8125,20.3125,-52.0,0.45135498046875,-0.08892822265625,0.21588134765625,0.86126708984375,-21.0,-34.0,9.0,341.0,724.0,565.0,
217,3.5505380630493164,0.013914108276367188,71.86949965729951,61.117497164256115,2.5729183616599765e-38,328.0,694.0,557.0,18.0625,-14.0,117.5625,1.8125,-0.9375,1.5,331.8125,20.375,-52.0,0.45147705078125,-0.08905029296875,0.21600341796875,0.86114501953125,-13.0,-30.0,-7.0,341.0,724.0,565.0,
218,3.565322160720825,0.014784097671508789,67.64024577077521,61.14454463658495,2.5729183616599765e-38,307.0,696.0,532.0,18.0625,-14.0,117.5625,3.0625,1.125,2.4375,331.75,20.375,-52.0625,0.45208740234375,-0.0888671875,0.21649169921875,0.8607177734375,-46.0,-22.0,-27.0,342.0,725.0,564.0,
219,3.5818610191345215,0.01653885841369629,60.46366532601018,61.14140074952338,2.5729183616599765e-38,288.0,710.0,566.0,18.0625,-14.0,117.5625,6.8125,2.1875,1.9375,331.6875,20.3125,-52.1875,0.4527587890625,-0.08819580078125,0.2169189453125,0.8603515625,-56.0,-29.0,6.0,341.0,726.0,563.0,
220,3.5975210666656494,0.01566004753112793,63.856766591050956,61.15322076596101,2.5729183616599765e-38,283.0,702.0,585.0,16.1875,-13.6875,118.375,1.9375,1.5,1.0625,331.6875,20.3125,-52.1875,0.45263671875,-0.08770751953125,0.2169189453125,0.8604736328125,-57.0,-24.0,22.0,340.0,726.0,563.0,
221,3.611954927444458,0.014433860778808594,69.28153287082921,61.18570260132306,2.5729183616599765e-38,285.0,705.0,571.0,16.1875,-13.6875,118.375,-2.125,0.75,0.1875,331.6875,20.3125,-52.125,0.4521484375,-0.08782958984375,0.216796875,0.8607177734375,-43.0,-30.0,-8.0,340.0,725.0,564.0,
222,3.632380962371826,0.020426034927368164,48.95712768316739,61.116937430219664,2.5729183616599765e-38,313.0,681.0,559.0,16.1875,-13.6875,118.375,-3.875,-2.3125,-0.8125,331.75,20.25,-52.0625,0.45172119140625,-0.0880126953125,0.21636962890625,0.86102294921875,-53.0,-37.0,21.0,340.0,725.0,565.0,
223,3.648275136947632,0.015894174575805664,62.916132903322584,61.124775854097265,2.5729183616599765e-38,288.0,702.0,589.0,16.1875,-13.25,117.5625,3.625,-2.0,-0.875,331.8125,20.25,-52.0625,0.45172119140625,-0.08770751953125,0.2161865234375,0.86114501953125,-50.0,-23.0,23.0,339.0,725.0,565.0,
224,3.6627111434936523,0.014436006546020508,69.27123486762787,61.156883855803905,2.5729183616599765e-38,272.0,720.0,590.0,16.1875,-13.25,117.5625,6.1875,-1.375,-1.0,331.8125,20.1875,-52.0625,0.451904296875,-0.08721923828125,0.2159423828125,0.86114501953125,-65.0,-5.0,25.0,338.0,726.0,565.0,
225,3.6827101707458496,0.019999027252197266,50.00243198779238,61.09630939391338,2.5729183616599765e-38,306.0,684.0,549.0,16.1875,-13.25,117.5625,4.5,-3.625,-2.0625,331.9375,20.0625,-52.1875,0.45263671875,-0.08673095703125,0.215087890625,0.86102294921875,-32.0,-39.0,-8.0,337.0,727.0,564.0,
226,3.6961491107940674,0.013438940048217773,74.41063033335108,61.144719335050574,error,error,error,error,error,error,error,error,error,error,error,error,error,error,error,error,error,error,error,error,error,error,error,
227,3.706629991531372,0.010480880737304688,95.41182893539582,61.24161314148767,error,error,error,error,error,error,error,error,error,error,error,error,error,error,error,error,error,error,error,error,error,error,error,
228,3.7081081867218018,0.0014781951904296875,676.5006451612903,61.48687916292059,error,error,error,error,error,error,error,error,error,error,error,error,error,error,error,error,error,error,error,error,error,error,error,
229,3.7093331813812256,0.0012249946594238281,816.3300895289996,61.73616356423621,error,error,error,error,error,error,error,error,error,error,error,error,error,error,error,error,error,error,error,error,error,error,error,
230,3.7212061882019043,0.011873006820678711,84.2246631458463,61.807916134616704,error,error,error,error,error,error,error,error,error,error,error,error,error,error,error,error,error,error,error,error,error,error,error,
231,3.7333199977874756,0.012113809585571289,82.55041429667972,61.87522101960197,error,error,error,error,error,error,error,error,error,error,error,error,error,error,error,error,error,error,error,error,error,error,error,
232,3.7432589530944824,0.009938955307006836,100.61419627221916,61.978079237133706,2.5729183616599765e-38,316.0,687.0,586.0,17.0,-14.0,117.25,0.5625,-1.9375,-2.8125,332.125,20.0625,-52.25,0.4527587890625,-0.0870361328125,0.21337890625,0.861328125,-20.0,-41.0,22.0,336.0,728.0,563.0,
233,3.759289264678955,0.016030311584472656,62.381819263489795,61.97980086001663,2.5729183616599765e-38,283.0,725.0,551.0,17.375,-13.6875,119.25,3.75,-0.3125,0.4375,332.125,20.0,-52.25,0.45306396484375,-0.08673095703125,0.2132568359375,0.8612060546875,-52.0,-3.0,-11.0,336.0,728.0,563.0,
234,3.776700019836426,0.017410755157470703,57.435762605099555,61.9588526414483,2.5729183616599765e-38,288.0,728.0,542.0,17.375,-13.6875,119.25,2.5625,-1.5625,0.75,332.125,20.0,-52.3125,0.45330810546875,-0.0870361328125,0.21307373046875,0.86114501953125,-48.0,0.0,-20.0,336.0,729.0,562.0,
235,3.792440176010132,0.015740156173706055,63.531771156788196,61.96538088762515,2.5729183616599765e-38,312.0,703.0,553.0,17.375,-13.6875,119.25,-4.25,-4.4375,-1.8125,332.1875,20.0625,-52.3125,0.45306396484375,-0.08734130859375,0.2127685546875,0.86126708984375,-24.0,-25.0,-9.0,336.0,728.0,563.0,
236,3.8109819889068604,0.018541812896728516,53.93215893017873,61.92629634224382,2.5729183616599765e-38,316.0,687.0,561.0,18.0625,-13.25,119.75,-4.9375,-3.125,0.125,332.25,20.0625,-52.1875,0.45220947265625,-0.0885009765625,0.2122802734375,0.86175537109375,-42.0,-28.0,-22.0,337.0,727.0,564.0,
237,3.828763961791992,0.017781972885131836,56.236729549629274,61.89987222118438,2.5732770940668437e-38,299.0,693.0,561.0,18.0625,-13.25,119.75,-2.625,-3.1875,1.0625,332.3125,20.125,-52.1875,0.45208740234375,-0.08880615234375,0.21221923828125,0.86181640625,-38.0,-33.0,-2.0,338.0,727.0,564.0,
238,3.8444650173187256,0.0157010555267334,63.68998557436793,61.907183165368,2.5732770940668437e-38,268.0,735.0,603.0,18.0625,-14.375,117.5625,-0.5625,-1.8125,0.4375,332.3125,20.1875,-52.125,0.45208740234375,-0.08917236328125,0.21209716796875,0.86181640625,-70.0,8.0,38.0,338.0,727.0,564.0,
239,3.8607981204986572,0.01633310317993164,61.225352523866526,61.904298681416414,2.5732770940668437e-38,280.0,728.0,582.0,18.0625,-14.375,117.5625,-2.25,-0.8125,-0.625,332.3125,20.1875,-52.125,0.45172119140625,-0.0894775390625,0.21185302734375,0.86199951171875,-51.0,-3.0,-23.0,338.0,726.0,564.0,
240,3.8783271312713623,0.017529010772705078,57.0482848671146,61.88235078594959,2.5732770940668437e-38,298.0,717.0,546.0,18.0625,-14.375,117.5625,-3.75,-3.8125,0.625,332.375,20.1875,-52.0625,0.45172119140625,-0.0894775390625,0.21185302734375,0.86199951171875,-40.0,-9.0,-18.0,339.0,726.0,564.0,
241,3.8931941986083984,0.014867067337036133,67.26276119762015,61.902897134220574,2.5732770940668437e-38,299.0,722.0,525.0,18.0625,-14.375,117.5625,-3.0625,-5.6875,2.125,332.375,20.25,-52.0625,0.451416015625,-0.09039306640625,0.211669921875,0.86212158203125,-40.0,-3.0,-39.0,340.0,725.0,565.0,
242,3.9098079204559326,0.01661372184753418,60.19120875966878,61.89562375529174,2.5732770940668437e-38,275.0,731.0,563.0,18.0625,-14.375,117.25,1.5,-6.125,1.5,332.375,20.375,-52.125,0.45159912109375,-0.09149169921875,0.2115478515625,0.8619384765625,-66.0,5.0,0.0,342.0,725.0,564.0,
243,3.9264321327209473,0.01662421226501465,60.153226153426935,61.888246577588326,2.5732770940668437e-38,301.0,778.0,587.0,18.0625,-14.375,117.25,-0.125,-6.125,-0.5,332.4375,20.4375,-52.1875,0.45196533203125,-0.09185791015625,0.21136474609375,0.8616943359375,-35.0,-3.0,3.0,343.0,725.0,563.0,
244,3.9415812492370605,0.015149116516113281,66.01045011016683,61.904089899765246,2.5732770940668437e-38,308.0,784.0,602.0,18.0625,-14.375,117.25,-4.875,-7.1875,-2.0,332.5,20.5,-52.125,0.45184326171875,-0.09283447265625,0.21063232421875,0.86187744140625,-34.0,59.0,38.0,343.0,725.0,563.0,
245,3.957617998123169,0.0160367488861084,62.35677861528627,61.90592424943159,2.5732770940668437e-38,305.0,735.0,570.0,19.1875,-15.1875,119.25,-18.5625,-10.625,1.0625,332.6875,20.5625,-51.875,0.449951171875,-0.09478759765625,0.2095947265625,0.8629150390625,-40.0,12.0,5.0,344.0,724.0,564.0,
246,3.9779889583587646,0.020370960235595703,49.08948760562721,61.84029231229804,2.5732770940668437e-38,314.0,732.0,573.0,19.1875,-15.1875,119.25,-19.3125,-10.5625,-1.125,332.875,20.75,-51.5625,0.44744873046875,-0.0970458984375,0.20843505859375,0.8642578125,-32.0,13.0,3.0,347.0,718.0,569.0,
247,3.9923951625823975,0.014406204223632812,69.41453726995896,61.867623304160404,2.5732770940668437e-38,330.0,724.0,581.0,19.1875,-15.1875,119.25,-17.375,-8.5,-3.8125,332.9375,20.75,-51.4375,0.44635009765625,-0.09783935546875,0.20770263671875,0.86492919921875,-16.0,6.0,10.0,347.0,717.0,571.0,
248,4.008285999298096,0.015890836715698242,62.929348396873266,61.87183250981295,2.5732770940668437e-38,358.0,700.0,598.0,20.0,-15.1875,117.5625,-9.3125,-4.75,-8.0,333.1875,20.6875,-51.3125,0.44500732421875,-0.0985107421875,0.2060546875,0.86590576171875,11.0,-15.0,25.0,347.0,715.0,573.0,
249,4.025740146636963,0.017454147338867188,57.29297344552508,61.85198023971083,2.5732770940668437e-38,347.0,721.0,635.0,20.0,-15.1875,117.5625,-3.9375,-2.625,-9.6875,333.4375,20.625,-51.25,0.444580078125,-0.09844970703125,0.204345703125,0.8665771484375,2.0,5.0,61.0,345.0,716.0,574.0,
250,4.0409581661224365,0.015218019485473633,65.71157310940168,61.86651524776643,2.5732770940668437e-38,324.0,678.0,608.0,20.0,-15.1875,117.5625,-5.125,0.4375,-9.375,333.5625,20.5,-51.25,0.44427490234375,-0.09820556640625,0.20361328125,0.86688232421875,-19.0,-37.0,34.0,344.0,716.0,574.0,
251,4.0557520389556885,0.014793872833251953,67.59555197421435,61.88741263990827,2.5732770940668437e-38,289.0,637.0,567.0,21.0625,-15.875,117.25,-2.5,8.25,-7.8125,333.625,20.3125,-51.125,0.443603515625,-0.0968017578125,0.202880859375,0.8675537109375,-51.0,-78.0,-9.0,341.0,716.0,576.0,
252,4.072484970092773,0.01673293113708496,59.76239260219711,61.87868140720463,2.5732770940668437e-38,271.0,671.0,506.0,21.0625,-15.875,117.25,5.0,11.6875,-9.4375,333.6875,20.0625,-51.1875,0.44384765625,-0.09429931640625,0.20263671875,0.8677978515625,-68.0,-57.0,-50.0,339.0,717.0,576.0,
253,4.088953971862793,0.01646900177001953,60.720134344779666,61.87401514934186,2.5732770940668437e-38,268.0,675.0,494.0,21.0625,-15.875,117.25,7.125,10.8125,-9.75,333.75,19.9375,-51.25,0.44427490234375,-0.093017578125,0.2021484375,0.8677978515625,-65.0,-43.0,-81.0,334.0,719.0,576.0,
254,4.104361057281494,0.015407085418701172,64.90520256259478,61.88539372026783,2.5732770940668437e-38,279.0,662.0,490.0,20.6875,-16.6875,116.75,12.3125,8.3125,-11.875,333.8125,19.625,-51.4375,0.44573974609375,-0.0904541015625,0.2012939453125,0.86749267578125,-50.0,-60.0,-83.0,329.0,722.0,574.0,
255,4.120138168334961,0.015777111053466797,63.38296007495391,61.89112830239165,2.5732770940668437e-38,272.0,672.0,500.0,20.6875,-16.6875,116.75,15.125,6.6875,-11.5,333.875,19.5,-51.625,0.44683837890625,-0.08929443359375,0.20086669921875,0.8671875,-54.0,-52.0,-73.0,327.0,724.0,573.0,
256,4.135975122451782,0.01583695411682129,63.143455024463684,61.895923553873956,2.5732770940668437e-38,254.0,685.0,524.0,20.6875,-16.6875,116.75,20.8125,7.75,-13.875,334.0,19.1875,-52.0,0.44964599609375,-0.0865478515625,0.19976806640625,0.86627197265625,-68.0,-44.0,-44.0,323.0,730.0,569.0,
257,4.155300140380859,0.01932501792907715,51.74639442353957,61.84872122773888,2.5732770940668437e-38,315.0,649.0,520.0,20.0,-15.875,118.0,23.6875,7.75,-13.1875,334.125,18.9375,-52.5,0.452880859375,-0.0836181640625,0.19866943359375,0.8651123046875,-2.0,-86.0,-43.0,318.0,735.0,564.0,
258,4.17112398147583,0.015823841094970703,63.19578122645774,61.85383152018278,2.5732770940668437e-38,283.0,696.0,508.0,20.0,-15.875,118.0,27.0,9.875,-11.375,334.125,18.75,-52.75,0.45477294921875,-0.08203125,0.1983642578125,0.86431884765625,-23.0,-76.0,-53.0,316.0,739.0,561.0,
259,4.187395095825195,0.016271114349365234,61.45860563256455,61.85229577648912,2.5732770940668437e-38,283.0,728.0,528.0,20.0,-15.875,118.0,25.875,7.8125,-9.0,334.125,18.5,-53.25,0.45855712890625,-0.0789794921875,0.19805908203125,0.8626708984375,-28.0,-16.0,-27.0,311.0,745.0,556.0,
260,4.203756093978882,0.016360998153686523,61.12096527403349,61.84944944175111,2.5732053475854703e-38,276.0,779.0,607.0,18.875,-12.5,118.75,11.4375,-5.5,-6.0625,334.1875,18.4375,-53.5625,0.4610595703125,-0.0782470703125,0.19708251953125,0.86163330078125,-34.0,30.0,55.0,310.0,748.0,551.0,
261,4.220190048217773,0.0164339542388916,60.84962787796138,61.84555601002443,2.5732053475854703e-38,282.0,734.0,638.0,18.875,-12.5,118.75,0.8125,-8.75,-4.5625,334.3125,18.4375,-53.625,0.4613037109375,-0.07867431640625,0.1964111328125,0.86163330078125,-28.0,-15.0,87.0,310.0,749.0,551.0,
262,4.243016958236694,0.0228269100189209,43.80794418390901,61.748515874157974,2.5732053475854703e-38,297.0,696.0,613.0,19.5625,-10.6875,118.875,-4.375,1.75,-3.0625,334.4375,18.375,-53.5625,0.46044921875,-0.07916259765625,0.1951904296875,0.86236572265625,-12.0,-52.0,61.0,310.0,748.0,552.0,
263,4.261710166931152,0.018693208694458008,53.495363816083156,61.71231493890766,2.5732053475854703e-38,288.0,678.0,558.0,19.5625,-10.6875,118.875,-1.6875,5.8125,-1.25,334.4375,18.375,-53.5,0.46026611328125,-0.07867431640625,0.1953125,0.86248779296875,-8.0,-57.0,25.0,309.0,748.0,553.0,
264,4.2790281772613525,0.017318010330200195,57.743353938075636,61.69625182719977,2.5732053475854703e-38,286.0,679.0,556.0,19.5625,-10.6875,118.875,8.75,10.4375,0.875,334.3125,18.25,-53.5625,0.46075439453125,-0.0771484375,0.1961669921875,0.86212158203125,-21.0,-69.0,4.0,307.0,749.0,552.0,
265,4.2932350635528564,0.014206886291503906,70.38840034906357,61.72501530365772,2.5732053475854703e-38,280.0,722.0,536.0,19.5625,-9.1875,120.1875,23.5625,13.75,1.4375,334.125,18.125,-53.875,0.46319580078125,-0.0745849609375,0.1976318359375,0.8607177734375,-25.0,-30.0,-12.0,305.0,753.0,548.0,
266,4.309007167816162,0.015772104263305664,63.40308073707919,61.73115746632904,2.5732053475854703e-38,267.0,759.0,544.0,19.5625,-9.1875,120.1875,28.875,13.5625,1.5625,333.9375,18.0625,-54.125,0.465087890625,-0.07318115234375,0.198486328125,0.859619140625,-37.0,3.0,-1.0,304.0,755.0,545.0,
267,4.326416969299316,0.017409801483154297,57.43890882199885,61.71388516055167,2.5732053475854703e-38,254.0,790.0,550.0,19.5625,-9.1875,120.1875,25.0625,9.75,-2.1875,333.75,17.9375,-54.625,0.46868896484375,-0.070556640625,0.19952392578125,0.85760498046875,-47.0,29.0,10.0,302.0,760.0,540.0,
