Index,Time,Difference,Hz,AveHz,0x6829 Pressure,0x6829 Acceleration-X,0x6829 Acceleration-Y,0x6829 Acceleration-Z,0x6829 Magnetic-X,0x6829 Magnetic-Y,0x6829 Magnetic-Z,0x6829 Angular-Vel-X,0x6829 Angular-Vel-Y,0x6829 Angular-Vel-Z,0x6829 Heading,0x6829 Roll,0x6829 Pitch,0x6829 Quaternion-X,0x6829 Quaternion-Y,0x6829 Quaternion-Z,0x6829 Quaternion-W,0x6829 Linear-Acceleration-X,0x6829 Linear-Acceleration-Y,0x6829 Linear-Acceleration-Z,0x6829 Gravity-X,0x6829 Gravity-Y,0x6829 Gravity-Z,0x6829 Measured-X,0x6829 Measured-Y,0x6829 Measured-Z,0x6829 Smoothed-X,0x6829 Smoothed-Y,0x6829 Smoothed-Z,0x6829 Velocity-X,0x6829 Velocity-Y,0x6829 Velocity-Z,
Index,Time,Difference,Hz,AveHz,0x6829 Pressure,0x6829 Acceleration-X,0x6829 Acceleration-Y,0x6829 Acceleration-Z,0x6829 Magnetic-X,0x6829 Magnetic-Y,0x6829 Magnetic-Z,0x6829 Angular-Vel-X,0x6829 Angular-Vel-Y,0x6829 Angular-Vel-Z,0x6829 Heading,0x6829 Roll,0x6829 Pitch,0x6829 Quaternion-X,0x6829 Quaternion-Y,0x6829 Quaternion-Z,0x6829 Quaternion-W,0x6829 Linear-Acceleration-X,0x6829 Linear-Acceleration-Y,0x6829 Linear-Acceleration-Z,0x6829 Gravity-X,0x6829 Gravity-Y,0x6829 Gravity-Z,0x6829 Measured-X,0x6829 Measured-Y,0x6829 Measured-Z,0x6829 Smoothed-X,0x6829 Smoothed-Y,0x6829 Smoothed-Z,0x6829 Velocity-X,0x6829 Velocity-Y,0x6829 Velocity-Z,
0,0.0010001659393310547,0.0010001659393310547,999.8340882002384,0.0,102110.75,7.0,0.0,983.0,20.25,-0.6875,-55.875,-1.0,0.875,0.0625,267.875,0.25,0.5,0.00164794921875,0.00506591796875,-0.7197265625,-0.6942138671875,3.0,8.0,0.0,4.0,-9.0,980.0,2259,2065,1484,2259,2065,1484,-7852.696928724672,-692.8850231227652,114249.04159046484,
1,0.09500956535339355,0.0940093994140625,10.637234215224801,10.52525602322716,102110.75,7.0,0.0,989.0,20.25,-0.375,-57.1875,-1.0625,0.8125,0.125,267.875,0.25,0.5625,0.00177001953125,0.005126953125,-0.7197265625,-0.6942138671875,1.0,5.0,2.0,4.0,-9.0,980.0,2295,2086,1330,2295,2086,1330,-7218.55285196827,-622.3324686162938,105325.7290646749,
2,0.18901872634887695,0.0940091609954834,10.637261192534675,10.580962207461637,102110.75,5.0,-4.0,988.0,19.5625,-1.0625,-55.5,-0.75,0.625,0.0625,267.875,0.25,0.5625,0.00177001953125,0.005126953125,-0.7197265625,-0.6942138671875,4.0,9.0,8.0,4.0,-9.0,980.0,2328,2085,1257,2328,2085,1257,-6635.695001676483,-575.2319376446643,97155.85588153171,
3,0.2800278663635254,0.09100914001464844,10.987907366656188,10.713219505466904,102112.0,5.0,0.0,987.0,20.25,-0.6875,-56.25,-0.1875,0.25,0.0625,267.875,0.25,0.5625,0.0018310546875,0.00518798828125,-0.7197265625,-0.6942138671875,1.0,8.0,6.0,4.0,-9.0,980.0,2329,2034,1508,2329,2034,1508,-6123.900417680162,-574.088590674884,89887.21826432915,
4,0.3720371723175049,0.09200930595397949,10.86846585387974,10.751613810746605,102112.0,5.0,-3.0,986.0,21.5,-1.0625,-54.6875,0.0,-0.25,-0.125,267.875,0.25,0.5625,0.0018310546875,0.00518798828125,-0.7197265625,-0.6942138671875,1.0,6.0,5.0,4.0,-9.0,980.0,2328,2012,1610,2328,2012,1610,-5653.1969573895385,-548.2949503493902,83051.26338879218,
5,0.4720470905303955,0.10000991821289062,9.999008277072129,10.592163579235207,102112.0,7.0,0.0,985.0,20.6875,-1.0625,-55.875,0.375,-0.1875,0.125,267.875,0.25,0.5625,0.0018310546875,0.00518798828125,-0.7197265625,-0.6942138671875,1.0,9.0,5.0,4.0,-9.0,980.0,2316,2055,1415,2316,2055,1415,-5227.139875318559,-472.96952276710135,76506.18099857496,
6,0.565056562423706,0.09300947189331055,10.751593140396299,10.6184060127788,102112.0,5.0,0.0,978.0,20.6875,-0.6875,-55.875,0.0625,-0.125,-0.125,267.875,0.25,0.5625,0.0018310546875,0.00518798828125,-0.7197265625,-0.6942138671875,5.0,8.0,0.0,4.0,-9.0,980.0,2320,2097,1437,2320,2097,1437,-4821.338614231788,-401.7802172979929,70633.41826046452,
7,0.6580657958984375,0.09300923347473145,10.751620700881036,10.637234215224801,102107.25,9.0,0.0,988.0,20.6875,-1.875,-55.5,0.4375,-0.3125,0.0625,267.875,0.25,0.5625,0.0018310546875,0.00518798828125,-0.7197265625,-0.6942138671875,1.0,8.0,1.0,4.0,-9.0,980.0,2327,2111,1276,2327,2111,1276,-4444.300417378166,-359.25289345049777,65061.357212579926,
8,0.753075122833252,0.09500932693481445,10.525282435545472,10.623110175120448,102107.25,8.0,-1.0,990.0,21.0625,-0.6875,-55.0625,0.375,-0.4375,-0.125,267.875,0.25,0.5625,0.0018310546875,0.00518798828125,-0.7197265625,-0.6942138671875,3.0,8.0,10.0,4.0,-9.0,980.0,2279,2097,1353,2279,2097,1353,-4140.990729121822,-342.9366751203275,60114.037106771626,
9,0.8460845947265625,0.09300947189331055,10.751593140396299,10.637234215224801,102107.25,8.0,0.0,991.0,20.25,-0.6875,-55.875,0.625,-0.4375,0.0625,267.875,0.25,0.5625,0.0018310546875,0.00518798828125,-0.7197265625,-0.6942138671875,5.0,11.0,8.0,4.0,-9.0,980.0,2317,2046,1566,2317,2046,1566,-3790.6752814506426,-358.75205739839856,55661.59312864585,
10,0.9350934028625488,0.08900880813598633,11.234843168242573,10.694118864904365,102107.25,7.0,0.0,989.0,20.25,-2.1875,-55.0625,0.6875,-0.375,0.0625,267.875,0.25,0.5625,0.0018310546875,0.00518798828125,-0.7197265625,-0.6942138671875,3.0,9.0,8.0,4.0,-9.0,980.0,2312,2071,1310,2312,2071,1310,-3503.1186993987167,-309.5010758798549,51154.189229207725,
11,1.0261025428771973,0.09100914001464844,10.987907366656188,10.720176142587015,102110.75,9.0,-1.0,986.0,21.0625,-1.0625,-56.0,-0.25,-0.0625,0.0,267.875,0.25,0.5625,0.00189208984375,0.0052490234375,-0.7197265625,-0.6942138671875,4.0,8.0,2.0,4.0,-9.0,980.0,2327,2079,1260,2327,2079,1260,-3220.687526536528,-278.9009420992459,47173.013215197105,
12,1.1191117763519287,0.09300923347473145,10.751620700881036,10.72278949571731,102110.75,8.0,-1.0,982.0,20.6875,-1.875,-55.0625,-0.5625,0.375,0.125,267.875,0.25,0.5625,0.001953125,0.0052490234375,-0.7197265625,-0.6942138671875,4.0,8.0,1.0,4.0,-10.0,980.0,2317,2069,1451,2317,2069,1451,-2980.973334932894,-265.7043174972824,43698.81528327479,
13,1.2101209163665771,0.09100914001464844,10.987907366656188,10.742728122601891,102110.75,6.0,-1.0,980.0,20.25,-1.5,-56.75,-0.625,0.4375,-0.0625,267.875,0.25,0.5625,0.001953125,0.00531005859375,-0.7197265625,-0.6942138671875,1.0,8.0,0.0,4.0,-10.0,980.0,2326,2069,1365,2326,2069,1365,-2743.8237683379684,-245.24508504999164,40261.24458388064,
14,1.3001298904418945,0.09000897407531738,11.110003311039003,10.768154861235912,102110.75,6.0,-2.0,987.0,20.0,-0.6875,-55.5,0.0,0.1875,-0.0625,267.875,0.25,0.5625,0.001953125,0.00531005859375,-0.7197265625,-0.6942138671875,2.0,7.0,7.0,4.0,-10.0,980.0,2273,2047,1558,2273,2047,1558,-2577.8892616882954,-245.18155911004237,37326.23451012718,
15,1.39613938331604,0.09600949287414551,10.415636725743928,10.743912949703313,102115.25,7.0,0.0,990.0,20.6875,-0.6875,-56.6875,0.625,-0.375,-0.125,267.875,0.25,0.5625,0.001953125,0.0052490234375,-0.7197265625,-0.6942138671875,3.0,9.0,9.0,4.0,-10.0,980.0,2270,2025,1575,2270,2025,1575,-2381.7978006219437,-243.94666767197933,34465.74852132139,
16,1.4881486892700195,0.09200930595397949,10.86846585387974,10.751613810746605,102115.25,7.0,0.0,993.0,21.0625,-0.6875,-55.5,0.375,-0.3125,0.0,267.875,0.25,0.5625,0.00201416015625,0.00531005859375,-0.7197265625,-0.6942138671875,3.0,9.0,13.0,4.0,-10.0,980.0,2254,2042,1602,2254,2042,1602,-2211.789319906034,-210.93595245850835,31834.48142568986,
17,1.58115816116333,0.09300947189331055,10.751593140396299,10.751612594841445,102115.25,8.0,0.0,989.0,20.6875,-0.6875,-55.0625,-0.25,-0.0625,0.0,267.875,0.25,0.5625,0.00201416015625,0.00531005859375,-0.7197265625,-0.6942138671875,4.0,9.0,9.0,4.0,-10.0,980.0,2327,2046,1469,2327,2046,1469,-1981.046837231102,-191.38239343196116,29273.119290560942,
18,1.6711668968200684,0.09000873565673828,11.110032739640394,10.7709170366232,102115.25,8.0,-1.0,983.0,20.6875,0.0,-55.0625,-0.75,0.375,-0.0625,267.875,0.25,0.5625,0.0020751953125,0.00531005859375,-0.7197265625,-0.6942138671875,4.0,8.0,2.0,4.0,-10.0,980.0,2361,2060,1467,2361,2060,1467,-1799.4201650519287,-164.66933384436783,27017.378160145847,
19,1.767176628112793,0.09600973129272461,10.41561086085216,10.751613448108195,102110.5,5.0,-3.0,984.0,20.0,-0.375,-55.5,-0.25,0.1875,-0.125,267.875,0.25,0.5625,0.00213623046875,0.00543212890625,-0.7197265625,-0.6942138671875,3.0,7.0,-1.0,4.0,-10.0,980.0,2322,2073,1358,2322,2073,1358,-1692.1428917580693,-141.5637686666385,24849.621819859483,
20,1.8581857681274414,0.09100914001464844,10.987907366656188,10.763186513991386,102110.5,7.0,-2.0,990.0,21.0625,-1.0625,-55.875,-0.3125,0.125,0.0,267.875,0.25,0.5625,0.00213623046875,0.00543212890625,-0.7197265625,-0.6942138671875,2.0,8.0,10.0,4.0,-10.0,980.0,2331,2052,1440,2331,2052,1440,-1554.2332692876053,-148.43080469119042,23005.57858684337,
21,1.9491949081420898,0.09100914001464844,10.987907366656188,10.773678872379431,102110.5,5.0,-2.0,989.0,21.0625,-1.0625,-56.25,0.1875,0.0,-0.0625,267.875,0.25,0.5625,0.00213623046875,0.00543212890625,-0.7197265625,-0.6942138671875,3.0,9.0,9.0,4.0,-10.0,980.0,2316,2050,1467,2316,2050,1467,-1447.2483405609476,-138.6937704644338,21256.99289507171,
22,2.0392038822174072,0.09000897407531738,11.110003311039003,10.788523988134747,102110.5,6.0,0.0,992.0,21.0625,-0.375,-55.875,0.4375,-0.375,0.0,267.875,0.1875,0.5625,0.002197265625,0.00537109375,-0.7197265625,-0.6942138671875,2.0,10.0,11.0,4.0,-10.0,980.0,2333,2057,1439,2333,2057,1439,-1321.2672240036045,-122.02605835402241,19596.25127501259,
23,2.1292128562927246,0.09000897407531738,11.110003311039003,10.802113998149725,102111.0,9.0,1.0,989.0,20.6875,-0.6875,-57.1875,0.375,-0.3125,-0.0625,267.875,0.1875,0.5625,0.002197265625,0.00543212890625,-0.7197265625,-0.6942138671875,5.0,11.0,9.0,4.0,-10.0,980.0,2326,2073,1379,2326,2073,1379,-1225.517939539977,-98.94252778156263,18036.011711539624,
24,2.223222255706787,0.0940093994140625,10.637234215224801,10.795142023427672,102111.0,7.0,0.0,979.0,20.6875,-1.0625,-55.875,-0.125,0.0,0.0,267.875,0.1875,0.5625,0.002197265625,0.00543212890625,-0.7197265625,-0.6942138671875,6.0,9.0,6.0,4.0,-10.0,980.0,2303,2085,1326,2303,2085,1326,-1149.991599990562,-81.49514872751459,16603.828256918743,
25,2.3192319869995117,0.09600973129272461,10.41561086085216,10.779430492567307,102111.0,7.0,0.0,979.0,20.25,-0.6875,-54.25,-0.1875,0.125,-0.0625,267.875,0.1875,0.5625,0.002197265625,0.00543212890625,-0.7197265625,-0.6942138671875,2.0,8.0,5.0,4.0,-10.0,980.0,2292,2030,1652,2292,2030,1652,-1070.2642691904307,-119.33013427120486,15586.786144965112,
26,2.4162416458129883,0.09700965881347656,10.30825190224337,10.760513148614251,102111.0,9.0,0.0,990.0,20.6875,-0.375,-55.0625,-0.4375,0.4375,0.0625,267.875,0.1875,0.5625,0.002197265625,0.00543212890625,-0.7197265625,-0.6942138671875,4.0,6.0,0.0,4.0,-10.0,980.0,2298,2073,1487,2298,2073,1487,-983.0915080839312,-76.0110918839943,14255.637271384796,
27,2.5072505474090576,0.09100890159606934,10.987936151986148,10.768768214210287,102107.25,3.0,-3.0,989.0,20.0,-0.375,-54.6875,-0.5,0.1875,0.0625,267.875,0.1875,0.5625,0.002197265625,0.00543212890625,-0.7197265625,-0.6942138671875,1.0,9.0,5.0,4.0,-10.0,980.0,2261,2069,1408,2261,2069,1408,-938.6980920584771,-73.54252214373848,13091.113585875637,
28,2.598259687423706,0.09100914001464844,10.987907366656188,10.776443992695468,102107.25,6.0,-2.0,991.0,20.25,-1.5,-54.6875,0.75,-0.3125,-0.0625,267.875,0.1875,0.5625,0.00225830078125,0.00531005859375,-0.7197265625,-0.6942138671875,2.0,10.0,8.0,4.0,-10.0,980.0,2319,2069,1433,2319,2069,1433,-817.3463446704878,-67.87974793867062,12104.249561444027,
29,2.6922693252563477,0.0940096378326416,10.637207238051761,10.771582073141486,102107.25,8.0,-1.0,984.0,20.6875,-1.0625,-56.25,0.5,-0.25,-0.0625,267.875,0.1875,0.625,0.0023193359375,0.00543212890625,-0.7197265625,-0.6942138671875,4.0,9.0,3.0,4.0,-10.0,980.0,2389,2097,1286,2389,2097,1286,-697.0761291177613,-39.71918854215339,11051.819796485328,
30,2.861286163330078,0.06900691986083984,14.491300322005555,10.484795398823309,102107.25,10.0,-1.0,986.0,20.0,0.0,-55.875,0.6875,-0.375,0.0,267.875,0.1875,0.625,0.00244140625,0.00543212890625,-0.7197265625,-0.6942138671875,5.0,11.0,-2.0,3.0,-10.0,980.0,2313,2053,1461,2313,2053,1461,-728.2043566600703,-85.7573365153624,10396.099943994983,
31,2.9562957286834717,0.09500956535339355,10.52525602322716,10.486095724193751,102108.0,11.0,1.0,987.0,20.25,-0.375,-57.1875,0.125,0.0625,0.0,267.875,0.1875,0.625,0.0025634765625,0.00543212890625,-0.7197265625,-0.6942138671875,4.0,10.0,-1.0,3.0,-11.0,980.0,2366,2094,1385,2366,2094,1385,-629.1790513664549,-45.92578833835135,9534.006450059445,
32,3.052304983139038,0.0960092544555664,10.415662590764157,10.483880273029172,102108.0,9.0,1.0,990.0,20.6875,-1.875,-55.5,-0.5,0.125,0.0,267.875,0.1875,0.625,0.0025634765625,0.00543212890625,-0.7197265625,-0.6942138671875,2.0,8.0,2.0,3.0,-11.0,980.0,2295,2055,1620,2295,2055,1620,-637.6746917949456,-73.66773739636307,8988.359367984745,
33,3.1433141231536865,0.09100914001464844,10.987907366656188,10.498473492331433,102108.0,6.0,-2.0,987.0,21.0625,-3.0,-55.875,-0.3125,0.1875,-0.0625,267.875,0.1875,0.625,0.0025634765625,0.00543212890625,-0.7197265625,-0.6942138671875,3.0,8.0,6.0,3.0,-11.0,980.0,2332,2070,1438,2332,2070,1438,-557.2691924391313,-55.30428860835522,8142.271162813599,
34,3.235323429107666,0.09200930595397949,10.86846585387974,10.508995698577664,102108.0,5.0,0.0,987.0,20.6875,-1.0625,-55.875,-0.1875,0.0625,-0.0625,267.875,0.1875,0.625,0.0025634765625,0.00543212890625,-0.7197265625,-0.6942138671875,1.0,11.0,7.0,3.0,-11.0,980.0,2357,2109,1370,2357,2109,1370,-493.43766785259976,-18.40785542631101,7458.408996066038,
35,3.3263325691223145,0.09100914001464844,10.987907366656188,10.522098819852848,102107.25,6.0,-2.0,978.0,20.6875,-1.5,-56.75,-0.3125,0.125,-0.1875,267.875,0.1875,0.625,0.0025634765625,0.00543212890625,-0.7197265625,-0.6942138671875,4.0,8.0,1.0,3.0,-11.0,980.0,2314,2089,1444,2314,2089,1444,-491.82392871894825,-33.91182790313559,6946.72059954416,
36,3.416341543197632,0.09000897407531738,11.110003311039003,10.537588102594881,102107.25,8.0,-1.0,976.0,22.1875,-1.0625,-56.6875,-0.25,0.125,-0.0625,267.875,0.1875,0.625,0.0025634765625,0.00543212890625,-0.7197265625,-0.6942138671875,4.0,9.0,9.0,3.0,-11.0,980.0,2329,2079,1433,2329,2079,1433,-441.1214323833392,-39.855319704094185,6402.41294057481,
37,3.5073506832122803,0.09100914001464844,10.987907366656188,10.549273038791997,102107.25,7.0,0.0,989.0,21.5,-0.375,-56.75,0.125,-0.3125,0.0625,267.875,0.1875,0.625,0.0025634765625,0.00543212890625,-0.7197265625,-0.6942138671875,3.0,7.0,10.0,3.0,-11.0,980.0,2346,2086,1283,2346,2086,1283,-392.77191134686916,-30.863978016251245,5782.516814065671,
38,3.6003599166870117,0.09300923347473145,10.751620700881036,10.554500349778067,102107.25,7.0,-1.0,993.0,20.6875,-1.5,-56.6875,0.5,-0.25,0.0,267.875,0.1875,0.625,0.0025634765625,0.00543212890625,-0.7197265625,-0.6942138671875,4.0,9.0,12.0,3.0,-11.0,980.0,2319,2081,1260,2319,2081,1260,-384.88109361029194,-32.6268256788391,5318.221899121354,
39,3.690368890762329,0.09000897407531738,11.110003311039003,10.56804919899042,102106.75,8.0,-2.0,987.0,21.0625,-1.875,-55.5,-0.0625,-0.125,-0.0625,267.875,0.1875,0.625,0.0025634765625,0.00543212890625,-0.7197265625,-0.6942138671875,4.0,8.0,6.0,3.0,-11.0,980.0,2328,2073,1488,2328,2073,1488,-347.54601710774944,-36.958322141168516,5103.766031017611,
40,3.7863783836364746,0.09600949287414551,10.415636725743928,10.564184544489082,102106.75,6.0,-2.0,988.0,20.6875,-0.6875,-55.0625,-0.375,0.25,-0.0625,267.875,0.1875,0.625,0.0025634765625,0.00543212890625,-0.7197265625,-0.6942138671875,4.0,10.0,2.0,3.0,-11.0,980.0,2279,2057,1572,2279,2057,1572,-360.08317115668456,-46.944595782415064,4778.144384971367,
41,3.877387762069702,0.09100937843322754,10.987878581477048,10.57412941802723,102106.75,8.0,-2.0,981.0,20.25,-1.0625,-56.0,-0.125,0.125,-0.125,267.875,0.1875,0.625,0.0025634765625,0.00543212890625,-0.7197265625,-0.6942138671875,5.0,8.0,-4.0,3.0,-11.0,980.0,2337,2028,1503,2337,2028,1503,-283.2849012327434,-67.86579477960736,4351.848668425184,
42,3.9653964042663574,0.08800864219665527,11.362520487084671,10.591627095543924,102106.75,9.0,-3.0,979.0,21.0625,-0.375,-56.25,0.375,0.0,-0.0625,267.875,0.1875,0.625,0.0025634765625,0.00543212890625,-0.7197265625,-0.6942138671875,5.0,7.0,-1.0,3.0,-11.0,980.0,2298,2067,1388,2298,2067,1388,-295.5936128605374,-28.518479558862325,3916.1412020433104,
43,4.05940580368042,0.0940093994140625,10.637234215224801,10.592683284094061,102111.5,7.0,-2.0,988.0,21.0625,-0.6875,-55.5,0.125,-0.125,0.0625,267.875,0.1875,0.625,0.0025634765625,0.00543212890625,-0.7197265625,-0.6942138671875,4.0,8.0,7.0,3.0,-11.0,980.0,2308,2084,1507,2308,2084,1507,-264.64223432455293,-12.398417045100663,3712.0673066000804,
44,4.149414777755737,0.09000897407531738,11.110003311039003,10.603904973751009,102111.5,6.0,0.0,992.0,21.0625,-0.6875,-55.875,-0.125,-0.1875,-0.125,267.875,0.1875,0.625,0.0025634765625,0.00543212890625,-0.7197265625,-0.6942138671875,2.0,10.0,11.0,3.0,-11.0,980.0,2314,2023,1650,2314,2023,1650,-239.13196075186235,-63.627424484578114,3548.570370449725,
45,4.240423917770386,0.09100914001464844,10.987907366656188,10.612146538325582,102111.5,5.0,0.0,987.0,20.25,0.75,-55.5,0.0,0.0625,0.125,267.875,0.1875,0.625,0.0025634765625,0.00543212890625,-0.7197265625,-0.6942138671875,1.0,11.0,7.0,3.0,-11.0,980.0,2306,2067,1524,2306,2067,1524,-227.48735071182915,-21.501082641034436,3168.725774653798,
46,4.333433389663696,0.09300947189331055,10.751593140396299,10.615139512637095,102111.5,8.0,-3.0,985.0,20.6875,-0.6875,-54.25,-0.0625,0.0625,0.0,267.875,0.1875,0.625,0.0025634765625,0.00543212890625,-0.7197265625,-0.6942138671875,4.0,7.0,4.0,3.0,-11.0,980.0,2330,2083,1434,2330,2083,1434,-190.10188058356596,-6.599536528706546,2850.2253495425093,
47,4.424442291259766,0.09100890159606934,10.987936151986148,10.622807781411417,102114.5,8.0,-1.0,981.0,20.0,-1.0625,-56.25,-0.25,0.125,-0.125,267.875,0.1875,0.625,0.0025634765625,0.00543212890625,-0.7197265625,-0.6942138671875,4.0,9.0,0.0,3.0,-11.0,980.0,2285,2061,1423,2285,2061,1423,-213.5372345452634,-24.704936057460674,2621.451215707004,
48,4.514451503753662,0.09000921249389648,11.109973882593517,10.632520907598433,102114.5,7.0,0.0,986.0,20.25,-1.0625,-55.5,0.0,-0.1875,0.0,267.875,0.1875,0.625,0.0025634765625,0.00543212890625,-0.7197265625,-0.6942138671875,3.0,10.0,5.0,3.0,-11.0,980.0,2259,2048,1671,2259,2048,1671,-219.33703519823032,-33.923739837512315,2631.75553335957,
49,4.6054604053497314,0.09100890159606934,10.987936151986148,10.639544298998054,102114.5,6.0,-1.0,990.0,20.0,-1.5,-55.0625,-0.125,0.1875,-0.0625,267.875,0.1875,0.625,0.0025634765625,0.00543212890625,-0.7197265625,-0.6942138671875,2.0,9.0,10.0,3.0,-11.0,980.0,2280,2069,1512,2280,2069,1512,-184.680590730205,-13.544119112262269,2294.585054982117,
50,4.69646954536438,0.09100914001464844,10.987907366656188,10.646294949224611,102114.5,7.0,-3.0,987.0,21.5,-0.6875,-55.875,0.1875,-0.1875,-0.0625,267.875,0.1875,0.625,0.0025634765625,0.00543212890625,-0.7197265625,-0.6942138671875,2.0,11.0,9.0,3.0,-11.0,980.0,2284,2045,1539,2284,2045,1539,-167.07590977504913,-32.80687475419871,2140.745865163772,
51,4.789478778839111,0.09300923347473145,10.751620700881036,10.648340321566586,102107.75,7.0,0.0,988.0,20.6875,-0.6875,-55.875,0.125,-0.25,-0.0625,267.875,0.1875,0.625,0.0025634765625,0.00543212890625,-0.7197265625,-0.6942138671875,4.0,11.0,8.0,3.0,-11.0,980.0,2303,2065,1348,2303,2065,1348,-138.4814436369814,-13.723249518768618,1817.7843478983045,
52,4.882488250732422,0.09300947189331055,10.751593140396299,10.65030724696562,102107.75,6.0,0.0,978.0,21.0625,-1.5,-55.0625,0.25,-0.0625,-0.0625,267.875,0.1875,0.625,0.0025634765625,0.00543212890625,-0.7197265625,-0.6942138671875,3.0,9.0,4.0,3.0,-11.0,980.0,2306,2062,1520,2306,2062,1520,-125.33475446150229,-15.15017732125498,1820.2090526615436,
53,4.974497318267822,0.09200906753540039,10.868494016801671,10.65434286302022,102107.75,8.0,255.0,989.0,21.0625,-1.875,-56.25,0.1875,0.0,-0.0625,267.875,0.1875,0.625,0.0025634765625,0.00543212890625,-0.7197265625,-0.6942138671875,4.0,9.0,-1.0,3.0,-11.0,980.0,2282,2047,1535,2282,2047,1535,-135.7689553110161,-26.536724256924273,1692.6060661960107,
54,5.068506717681885,0.0940093994140625,10.637234215224801,10.65402553608477,102107.75,8.0,-2.0,989.0,20.6875,-1.0625,-55.0625,0.0,0.0,0.0625,267.875,0.1875,0.625,0.0025634765625,0.00543212890625,-0.7197265625,-0.6942138671875,4.0,6.0,0.0,3.0,-11.0,980.0,2310,2076,1368,2310,2076,1368,-102.38086878404319,-0.7404524865441218,1425.491204325342,
55,5.16451621055603,0.09600949287414551,10.415636725743928,10.649593835639932,102107.0,6.0,-2.0,989.0,20.6875,-0.375,-55.0625,0.0,-0.0625,0.0625,267.875,0.1875,0.625,0.0025634765625,0.00543212890625,-0.7197265625,-0.6942138671875,3.0,7.0,5.0,3.0,-11.0,980.0,2285,2049,1511,2285,2049,1511,-114.54764258472893,-22.337546397901853,1430.4149575794572,
56,5.255525350570679,0.09100914001464844,10.987907366656188,10.65545236004221,102107.0,9.0,1.0,987.0,21.5,-0.375,-56.25,0.0,0.25,-0.0625,267.875,0.1875,0.625,0.0025634765625,0.00543212890625,-0.7197265625,-0.6942138671875,2.0,9.0,7.0,3.0,-11.0,980.0,1575,2635,801,1575,2635,801,-706.4363698407985,475.17880087299704,719.5641101107454,
57,5.351535081863403,0.09600973129272461,10.41561086085216,10.651149460493233,102107.0,8.0,-1.0,984.0,20.25,-2.1875,-55.5,0.1875,0.0,0.0625,267.875,0.1875,0.625,0.0025634765625,0.00543212890625,-0.7197265625,-0.6942138671875,4.0,9.0,4.0,3.0,-11.0,980.0,2199,2042,1573,2199,2042,1573,-151.59149872083242,-36.99717431159422,1283.303245644714,
58,5.444544553756714,0.09300947189331055,10.751593140396299,10.652865345730385,102107.0,7.0,0.0,984.0,20.6875,-1.0625,-54.25,0.0,0.125,0.0625,267.875,0.1875,0.625,0.0025634765625,0.00543212890625,-0.7197265625,-0.6942138671875,3.0,11.0,4.0,3.0,-11.0,980.0,2254,2061,1435,2254,2061,1435,-94.38595636975,-18.418811125201685,1070.2424670202201,
59,5.538553714752197,0.0940091609954834,10.637261192534675,10.652600487172442,102107.0,8.0,-1.0,983.0,21.0625,-0.6875,-56.75,-0.1875,0.25,0.0,267.875,0.1875,0.625,0.0025634765625,0.00543212890625,-0.7197265625,-0.6942138671875,6.0,9.0,5.0,3.0,-11.0,980.0,2324,2049,1463,2324,2049,1463,-29.783399901517363,-26.829392010463195,1010.7677321907679,
60,5.629562854766846,0.09100914001464844,10.987907366656188,10.658021155087532,102110.75,8.0,0.0,976.0,20.6875,-1.0625,-54.6875,0.0625,0.25,0.0,267.875,0.1875,0.625,0.0025634765625,0.00543212890625,-0.7197265625,-0.6942138671875,4.0,10.0,-3.0,3.0,-11.0,980.0,2269,2042,1515,2269,2042,1515,-74.02386580688949,-30.686010896285218,976.9341979081703,
61,5.718571662902832,0.08900880813598633,11.234843168242573,10.666999313082927,102110.75,10.0,0.0,985.0,20.0,-0.375,-56.75,0.1875,-0.0625,0.0625,267.875,0.1875,0.625,0.0025634765625,0.00543212890625,-0.7197265625,-0.6942138671875,3.0,9.0,-2.0,3.0,-11.0,980.0,2248,2059,1502,2248,2059,1502,-86.49076954280724,-13.616778350041727,890.4641866578305,
62,5.8125810623168945,0.0940093994140625,10.637234215224801,10.666517909220659,102110.75,7.0,0.0,988.0,21.0625,-1.0625,-55.875,-0.0625,0.125,0.0625,267.875,0.1875,0.625,0.0025634765625,0.00543212890625,-0.7197265625,-0.6942138671875,3.0,11.0,3.0,3.0,-11.0,980.0,2276,2053,1396,2276,2053,1396,-56.897103319986414,-17.482688624522375,735.0773386205127,
63,5.904590368270874,0.09200930595397949,10.86846585387974,10.669664798177896,102110.75,9.0,-1.0,984.0,20.25,-1.5,-56.75,0.25,0.0625,0.0625,267.875,0.1875,0.625,0.0025634765625,0.00543212890625,-0.7197265625,-0.6942138671875,3.0,10.0,7.0,3.0,-11.0,980.0,2295,2051,1439,2295,2051,1439,-36.6154608201214,-17.810265341931633,714.461873988929,
64,5.998599529266357,0.0940091609954834,10.637261192534675,10.66915697368238,102112.5,7.0,-1.0,989.0,20.6875,-1.875,-55.5,-0.1875,0.0625,0.125,267.875,0.1875,0.625,0.0025634765625,0.00543212890625,-0.7197265625,-0.6942138671875,3.0,10.0,7.0,3.0,-11.0,980.0,2258,2039,1606,2258,2039,1606,-64.10162747450335,-26.267704252504938,796.232851366585,
65,6.098609924316406,0.10001039505004883,9.99896060304095,10.658166501325441,102112.5,8.0,-1.0,985.0,21.0625,-0.6875,-56.25,-0.125,0.1875,0.0,267.875,0.1875,0.625,0.0025634765625,0.00543212890625,-0.7197265625,-0.6942138671875,4.0,9.0,4.0,3.0,-11.0,980.0,2276,2013,1546,2276,2013,1546,-45.307242763151834,-44.26301015235005,688.7277238253089,
66,6.1906187534332275,0.09200882911682129,10.868522179869556,10.661292938350849,102112.5,6.0,-2.0,984.0,21.5,-1.5,-55.5,0.0,0.125,0.0,267.875,0.1875,0.625,0.0025634765625,0.00543212890625,-0.7197265625,-0.6942138671875,3.0,8.0,4.0,3.0,-11.0,980.0,2290,2066,1447,2290,2066,1447,-30.102318160489766,3.499680645428569,552.8449445136145,
67,6.281628131866455,0.09100937843322754,10.987878581477048,10.66602457094071,102112.5,8.0,1.0,980.0,20.6875,-1.875,-55.0625,0.0625,-0.125,0.0,267.875,0.1875,0.625,0.0025634765625,0.00543212890625,-0.7197265625,-0.6942138671875,4.0,12.0,0.0,3.0,-11.0,980.0,2259,2019,1598,2259,2019,1598,-54.01250583611777,-36.534927350634874,638.0319480528998,
68,6.3746373653411865,0.09300923347473145,10.751620700881036,10.667273462442749,102111.0,6.0,-2.0,991.0,20.0,0.0,-55.0625,-0.0625,0.0,-0.125,267.875,0.1875,0.625,0.0025634765625,0.00543212890625,-0.7197265625,-0.6942138671875,3.0,8.0,10.0,3.0,-11.0,980.0,2282,2078,1397,2282,2078,1397,-30.81242262547639,15.122874899466552,422.5006544652908,
69,6.463646173477173,0.08900880813598633,11.234843168242573,10.675089283682258,102111.0,9.0,-1.0,991.0,20.6875,-1.0625,-55.0625,-0.125,-0.0625,-0.0625,267.875,0.1875,0.625,0.0025634765625,0.00543212890625,-0.7197265625,-0.6942138671875,5.0,9.0,10.0,3.0,-11.0,980.0,2285,2050,1462,2285,2050,1462,-25.844617311450673,-10.263908338523358,446.1984941285175,
70,6.556655645370483,0.09300947189331055,10.751593140396299,10.676174529529476,102111.0,9.0,-2.0,988.0,20.25,-1.0625,-55.0625,-0.125,0.0,-0.0625,267.875,0.1875,0.625,0.0025634765625,0.00543212890625,-0.7197265625,-0.6942138671875,5.0,8.0,8.0,3.0,-11.0,980.0,2301,2047,1562,2301,2047,1562,-10.608619029500732,-11.957205411888605,494.6284772616732,
71,6.647664546966553,0.09100890159606934,10.987936151986148,10.68044265747413,102111.0,8.0,0.0,988.0,20.6875,-2.5625,-56.25,0.0,-0.0625,0.0625,267.875,0.1875,0.625,0.0025634765625,0.00543212890625,-0.7197265625,-0.6942138671875,4.0,10.0,8.0,3.0,-11.0,980.0,2295,2061,1404,2295,2061,1404,-14.868181866446776,0.8084945766678828,322.8628532874609,
72,6.741673946380615,0.0940093994140625,10.637234215224801,10.67984013653678,102113.0,7.0,-3.0,988.0,20.6875,-0.6875,-56.25,-0.125,0.125,0.0,267.875,0.1875,0.625,0.0025634765625,0.00543212890625,-0.7197265625,-0.6942138671875,3.0,7.0,8.0,3.0,-11.0,980.0,2312,2076,1422,2312,2076,1422,0.20080772499888866,13.0322460128491,312.74562020662796,
73,6.838683843612671,0.09700989723205566,10.308226567933762,10.674568625976471,102113.0,8.0,-1.0,984.0,20.6875,0.375,-55.5,-0.0625,0.0625,0.0,267.875,0.1875,0.625,0.0025634765625,0.00543212890625,-0.7197265625,-0.6942138671875,4.0,9.0,3.0,3.0,-11.0,980.0,2327,2095,1313,2327,2095,1313,12.091347216137466,27.109698538746812,202.14726186604958,
74,6.93069314956665,0.09200930595397949,10.86846585387974,10.67714273349801,102113.0,10.0,-1.0,978.0,21.0625,0.0,-55.0625,-0.1875,0.0,0.0,267.875,0.1875,0.625,0.0025634765625,0.00543212890625,-0.7197265625,-0.6942138671875,6.0,9.0,-1.0,3.0,-11.0,980.0,2355,2081,1345,2355,2081,1345,34.5927258614596,13.306045560780948,213.36182256632344,
75,7.022701978683472,0.09200882911682129,10.868522179869556,10.679650115817681,102113.0,7.0,-2.0,980.0,20.0,-2.5625,-54.6875,-0.125,0.0625,-0.0625,267.875,0.1875,0.625,0.0025634765625,0.00543212890625,-0.7197265625,-0.6942138671875,4.0,9.0,8.0,3.0,-11.0,980.0,2272,2046,1590,2272,2046,1590,-37.531639281419125,-17.009187222147638,401.96763315195574,
76,7.117711544036865,0.09500956535339355,10.52525602322716,10.677589212458589,102108.75,8.0,-2.0,986.0,21.0625,-1.5,-56.25,0.0625,0.1875,-0.125,267.875,0.1875,0.625,0.0025634765625,0.00543212890625,-0.7197265625,-0.6942138671875,4.0,8.0,5.0,3.0,-11.0,980.0,2372,2064,1375,2372,2064,1375,46.40276832209927,-1.1114749578494294,196.77051193472948,
77,7.209720849990845,0.09200930595397949,10.86846585387974,10.68002514966967,102108.75,8.0,-3.0,989.0,20.6875,-0.6875,-56.6875,-0.3125,0.0625,0.0,267.875,0.1875,0.625,0.0025634765625,0.00543212890625,-0.7197265625,-0.6942138671875,4.0,7.0,8.0,3.0,-11.0,980.0,2317,2070,1380,2317,2070,1380,-3.19819772988307,3.995339838397417,185.803541869499,
78,7.300729990005493,0.09100914001464844,10.987907366656188,10.683863135163188,102108.75,6.0,-1.0,982.0,20.6875,-1.0625,-54.6875,-0.0625,0.125,-0.0625,267.875,0.1875,0.625,0.0025634765625,0.00543212890625,-0.7197265625,-0.6942138671875,4.0,8.0,7.0,3.0,-11.0,980.0,2348,2068,1432,2348,2068,1432,23.276198379526246,1.995560936375763,215.49225024163897,
79,7.3927390575408936,0.09200906753540039,10.868494016801671,10.686161027071122,102108.75,9.0,-3.0,981.0,21.0625,-1.0625,-56.25,0.0,0.0625,0.0625,267.875,0.1875,0.625,0.0025634765625,0.00543212890625,-0.7197265625,-0.6942138671875,7.0,8.0,2.0,3.0,-11.0,980.0,2359,2028,1503,2359,2028,1503,30.689545536533743,-31.63305882747432,258.3174037628875,
80,7.484748125076294,0.09200906753540039,10.868494016801671,10.688402423586504,102112.25,8.0,-2.0,982.0,20.6875,-1.5,-55.875,0.125,-0.0625,-0.0625,267.875,0.1875,0.625,0.0025634765625,0.00543212890625,-0.7197265625,-0.6942138671875,4.0,10.0,2.0,3.0,-11.0,980.0,2355,2039,1419,2355,2039,1419,24.97895437304573,-19.99169886552778,168.129544372472,
81,7.5787577629089355,0.0940096378326416,10.637207238051761,10.687767380087099,102112.25,8.0,0.0,991.0,21.5,-1.5,-55.5,0.125,0.0,0.0,267.875,0.1875,0.625,0.0025634765625,0.00543212890625,-0.7197265625,-0.6942138671875,3.0,11.0,-1.0,3.0,-11.0,980.0,2336,2045,1517,2336,2045,1517,7.493340697051481,-13.537948308902227,235.45193527413025,
82,7.673767328262329,0.09500956535339355,10.52525602322716,10.685755313168757,102112.25,8.0,-1.0,990.0,20.0,-1.0625,-55.875,-0.375,0.1875,0.0,267.875,0.1875,0.625,0.0025634765625,0.00543212890625,-0.7197265625,-0.6942138671875,4.0,8.0,8.0,3.0,-11.0,980.0,2356,2063,1412,2356,2063,1412,23.125247739148342,2.0924785590760866,132.22544131023062,
83,7.767776727676392,0.0940093994140625,10.637234215224801,10.685168087320674,102112.25,6.0,0.0,991.0,20.25,-1.5,-55.875,-0.125,-0.0625,-0.0625,267.875,0.1875,0.625,0.0025634765625,0.00543212890625,-0.7197265625,-0.6942138671875,4.0,9.0,9.0,3.0,-11.0,980.0,2412,2081,1481,2412,2081,1481,67.21235759928327,16.674564332328803,178.55970771483223,
84,7.867786645889282,0.10000991821289062,9.999008277072129,10.676446093500497,102109.0,9.0,-3.0,990.0,20.25,-1.0625,-55.0625,0.0,-0.125,0.0,267.875,0.1875,0.625,0.0025634765625,0.00543212890625,-0.7197265625,-0.6942138671875,5.0,11.0,10.0,3.0,-11.0,980.0,2328,2083,1299,2328,2083,1299,-2.636579471964076,16.930470153408592,24.68450822590134,
85,7.961796045303345,0.0940093994140625,10.637234215224801,10.675983096821653,102109.0,7.0,0.0,988.0,20.6875,-1.0625,-55.5,0.0,-0.125,-0.0625,267.875,0.1875,0.625,0.0025634765625,0.00543212890625,-0.7197265625,-0.6942138671875,5.0,7.0,10.0,3.0,-11.0,980.0,2305,2064,1414,2305,2064,1414,-21.272104647785966,0.06455029472224716,116.97651006832254,
86,8.059805870056152,0.09800982475280762,10.203058749692884,10.670232185058923,102109.0,7.0,-2.0,988.0,20.6875,-1.0625,-55.875,0.0625,-0.1875,-0.0625,267.875,0.1875,0.625,0.0025634765625,0.00543212890625,-0.7197265625,-0.6942138671875,2.0,9.0,8.0,3.0,-11.0,980.0,2360,2087,1381,2360,2087,1381,23.57580121504292,18.129196967734728,82.04334651009208,
87,8.156815528869629,0.09700965881347656,10.30825190224337,10.665927124633216,102109.0,9.0,0.0,988.0,20.6875,0.0,-55.5,-0.125,0.125,-0.0625,267.875,0.1875,0.625,0.0025634765625,0.00543212890625,-0.7197265625,-0.6942138671875,5.0,10.0,7.0,3.0,-11.0,980.0,2366,2075,1458,2366,2075,1458,26.52287690032105,7.208424043546282,136.84363435721593,
88,8.25682544708252,0.10000991821289062,9.999008277072129,10.65784914117254,102110.75,7.0,-1.0,987.0,21.0625,-1.0625,-54.6875,0.0625,0.125,0.0,267.875,0.1875,0.625,0.0025634765625,0.00543212890625,-0.7197265625,-0.6942138671875,3.0,9.0,6.0,3.0,-11.0,980.0,2286,2048,1573,2286,2048,1573,-37.11327560776798,-14.134562815839736,214.84789280518402,
89,8.352835178375244,0.09600973129272461,10.41561086085216,10.655064789308087,102110.75,6.0,-1.0,986.0,20.0,-1.0625,-55.5,0.1875,0.0,0.0,267.875,0.1875,0.625,0.0025634765625,0.00543212890625,-0.7197265625,-0.6942138671875,3.0,9.0,5.0,3.0,-11.0,980.0,2338,2086,1314,2338,2086,1314,7.448552500882208,17.429875899833345,-9.413922338789774,
90,8.452845335006714,0.10001015663146973,9.998984439999713,10.647302350046905,102110.75,5.0,1.0,987.0,20.0,-0.6875,-56.0,0.0625,0.0,0.0625,267.875,0.1875,0.625,0.0025634765625,0.00543212890625,-0.7197265625,-0.6942138671875,2.0,12.0,7.0,3.0,-11.0,980.0,2355,2057,1425,2355,2057,1425,19.963684590273907,-6.239956798973182,76.77226968997459,
91,8.546854496002197,0.0940091609954834,10.637261192534675,10.647191904643442,102110.75,8.0,-2.0,982.0,20.0,-1.875,-56.0,0.0625,0.0625,0.125,267.875,0.1875,0.625,0.0025634765625,0.00543212890625,-0.7197265625,-0.6942138671875,4.0,12.0,8.0,3.0,-11.0,980.0,2341,2078,1292,2341,2078,1292,6.95951331127044,11.440971222876323,-38.075386948901055,
92,8.64086389541626,0.0940093994140625,10.637234215224801,10.647083568669965,102112.75,7.0,-1.0,983.0,20.6875,-1.0625,-55.875,0.0,-0.0625,0.0,267.875,0.1875,0.625,0.0025634765625,0.00543212890625,-0.7197265625,-0.6942138671875,3.0,7.0,0.0,3.0,-11.0,980.0,2331,2038,1383,2331,2038,1383,-1.767039559420481,-22.202664944177542,39.39151799224451,
93,8.730873107910156,0.09000921249389648,11.109973882593517,10.651855644968904,102112.75,8.0,0.0,987.0,20.6875,0.0,-56.0,0.0625,0.0625,0.0625,267.875,0.1875,0.625,0.0025634765625,0.00543212890625,-0.7197265625,-0.6942138671875,4.0,10.0,6.0,3.0,-11.0,980.0,2292,2043,1551,2292,2043,1551,-34.99422908277343,-16.21571979867737,180.0769932520714,
94,8.822882175445557,0.09200906753540039,10.868494016801671,10.654114849408945,102112.75,9.0,0.0,988.0,20.6875,0.375,-56.25,0.0625,0.1875,-0.125,267.875,0.1875,0.625,0.0025634765625,0.00543212890625,-0.7197265625,-0.6942138671875,5.0,10.0,7.0,3.0,-11.0,980.0,2347,2090,1406,2347,2090,1406,13.728398717755205,24.365970472626035,44.86432907407125,
95,8.91689157485962,0.0940093994140625,10.637234215224801,10.653936879511244,102112.75,5.0,-1.0,992.0,20.25,-0.6875,-55.5,0.0,-0.0625,0.0,267.875,0.1875,0.625,0.0025634765625,0.00543212890625,-0.7197265625,-0.6942138671875,1.0,9.0,11.0,3.0,-11.0,980.0,2284,2035,1563,2284,2035,1563,-38.92991116156746,-22.5588961552432,170.0033001632204,
96,9.008900880813599,0.09200930595397949,10.86846585387974,10.656127897294635,102109.0,5.0,-1.0,989.0,20.6875,-1.0625,-56.0,0.0625,-0.0625,-0.125,267.875,0.1875,0.625,0.0025634765625,0.00543212890625,-0.7197265625,-0.6942138671875,2.0,9.0,8.0,3.0,-11.0,980.0,2324,2066,1465,2324,2066,1465,-2.4574331721771685,5.121166841921465,74.8996027172759,
97,9.100909948348999,0.09200906753540039,10.868494016801671,10.658274892347091,102109.0,7.0,0.0,985.0,21.5,-1.0625,-55.875,-0.125,0.0625,-0.125,267.875,0.1875,0.625,0.0025634765625,0.00543212890625,-0.7197265625,-0.6942138671875,3.0,11.0,4.0,3.0,-11.0,980.0,2388,2062,1351,2388,2062,1351,51.291727696879114,1.3793408379185972,-26.271307171439418,
98,9.190918922424316,0.09000897407531738,11.110003311039003,10.662698782044119,102109.0,5.0,-2.0,979.0,21.5,-1.5,-55.875,-0.0625,0.125,-0.0625,267.875,0.1875,0.625,0.0025634765625,0.00543212890625,-0.7197265625,-0.6942138671875,2.0,8.0,0.0,3.0,-11.0,980.0,2323,2076,1443,2323,2076,1443,-8.263301907530781,13.249715162698912,54.454846936161715,
99,9.281928062438965,0.09100914001464844,10.987907366656188,10.665887446447874,102109.0,7.0,0.0,980.0,20.6875,-0.6875,-55.0625,-0.1875,0.0625,0.0,267.875,0.1875,0.625,0.0025634765625,0.00543212890625,-0.7197265625,-0.6942138671875,4.0,11.0,0.0,3.0,-11.0,980.0,2316,2080,1330,2316,2080,1330,-13.549509731278597,15.613762564101203,-45.34395827519822,
100,9.376937627792358,0.09500956535339355,10.52525602322716,10.66446253237405,102114.0,7.0,0.0,984.0,20.25,-1.0625,-55.875,0.125,0.0,-0.125,267.875,0.1875,0.625,0.0025634765625,0.00543212890625,-0.7197265625,-0.6942138671875,4.0,10.0,4.0,3.0,-11.0,980.0,2350,2080,1331,2350,2080,1331,15.048922786838558,14.41150284666541,-41.04202877421947,
101,9.468946695327759,0.09200906753540039,10.868494016801671,10.666445091494305,102114.0,6.0,-2.0,989.0,20.0,-0.6875,-55.0625,0.125,-0.0625,-0.0625,267.875,0.1875,0.625,0.0025634765625,0.00543212890625,-0.7197265625,-0.6942138671875,2.0,8.0,9.0,3.0,-11.0,980.0,2344,2094,1387,2344,2094,1387,8.868911496489616,25.018053677584376,8.983153641844233,
102,9.56195592880249,0.09300923347473145,10.751620700881036,10.667273595432077,102114.0,6.0,0.0,990.0,20.0,-0.375,-55.875,0.125,-0.125,-0.0625,267.875,0.1875,0.625,0.0025634765625,0.00543212890625,-0.7197265625,-0.6942138671875,3.0,10.0,10.0,3.0,-11.0,980.0,2335,2044,1481,2335,2044,1481,0.7351321655493575,-18.302076153981602,86.11168144439915,
103,9.6549654006958,0.09300947189331055,10.751593140396299,10.668085873469535,102114.0,5.0,0.0,987.0,20.0,-1.5,-56.25,0.125,0.0,0.125,267.875,0.1875,0.625,0.0025634765625,0.00543212890625,-0.7197265625,-0.6942138671875,1.0,11.0,6.0,3.0,-11.0,980.0,2269,2055,1511,2269,2055,1511,-53.96106935069193,-7.786216900209354,104.31726212749587,
104,9.74697470664978,0.09200930595397949,10.86846585387974,10.669977416587221,102108.25,6.0,0.0,985.0,21.0625,0.0,-55.5,-0.25,0.125,-0.0625,267.875,0.1875,0.625,0.0025634765625,0.00543212890625,-0.7197265625,-0.6942138671875,3.0,10.0,4.0,3.0,-11.0,980.0,2309,2072,1508,2309,2072,1508,-16.331192180739052,7.040143603835346,93.77421733143247,
105,9.841984033584595,0.09500932693481445,10.525282435545472,10.668580607497436,102108.25,7.0,-3.0,978.0,20.6875,-1.875,-56.0,-0.25,0.1875,0.125,267.875,0.1875,0.625,0.0025634765625,0.00543212890625,-0.7197265625,-0.6942138671875,3.0,9.0,2.0,3.0,-11.0,980.0,2360,2105,1296,2360,2105,1296,26.25909374156493,33.24279521506107,-85.26110788093213,
106,9.93799376487732,0.09600973129272461,10.41561086085216,10.66613669799465,102108.25,7.0,0.0,991.0,20.0,-1.0625,-55.0625,-0.0625,-0.125,-0.0625,267.875,0.1875,0.625,0.0025634765625,0.00543212890625,-0.7197265625,-0.6942138671875,3.0,10.0,-1.0,3.0,-11.0,980.0,2307,2056,1473,2307,2056,1473,-18.268964399673234,-8.614999794493833,63.25835784845373,
107,10.033003091812134,0.09500932693481445,10.525282435545472,10.664802853227663,102108.25,7.0,0.0,991.0,20.6875,-0.375,-56.25,0.25,0.0,0.0625,267.875,0.1875,0.625,0.0025634765625,0.00543212890625,-0.7197265625,-0.6942138671875,5.0,10.0,1.0,3.0,-11.0,980.0,2351,2043,1525,2351,2043,1525,18.79740275072967,-18.487452528298828,100.53069516604687,
108,10.13001275062561,0.09700965881347656,10.30825190224337,10.661388357416444,102109.75,9.0,-1.0,989.0,21.0625,-1.0625,-55.5,0.125,0.0,0.0,267.875,0.1875,0.625,0.0025634765625,0.00543212890625,-0.7197265625,-0.6942138671875,5.0,11.0,9.0,3.0,-11.0,980.0,2367,2065,1309,2367,2065,1309,30.049769082487316,0.3982600387804496,-78.65701399985045,
109,10.224022150039673,0.0940093994140625,10.637234215224801,10.66116626122304,102109.75,7.0,0.0,990.0,20.25,-2.1875,-54.6875,-0.125,0.0625,0.0625,267.875,0.1875,0.625,0.0025634765625,0.00543212890625,-0.7197265625,-0.6942138671875,4.0,9.0,8.0,3.0,-11.0,980.0,2325,2083,1358,2325,2083,1358,-6.664878588901207,15.11080063809593,-32.4661392278188,
110,10.32103180885315,0.09700965881347656,10.30825190224337,10.65784914117254,102109.75,7.0,-1.0,987.0,20.6875,-1.0625,-54.6875,-0.25,0.0625,-0.0625,267.875,0.1875,0.625,0.0025634765625,0.00543212890625,-0.7197265625,-0.6942138671875,4.0,9.0,7.0,3.0,-11.0,980.0,2328,2087,1414,2328,2087,1414,-3.7704767481375963,17.1222105748535,14.482935695196655,
111,10.41404128074646,0.09300947189331055,10.751593140396299,10.658686383855366,102109.75,9.0,-1.0,987.0,20.0,0.0,-56.0,-0.0625,0.0,0.0625,267.875,0.1875,0.625,0.0025634765625,0.00543212890625,-0.7197265625,-0.6942138671875,5.0,9.0,6.0,3.0,-11.0,980.0,2260,2049,1581,2260,2049,1581,-59.77549172164602,-15.655361168209787,151.62248583902252,
112,10.511050939559937,0.09700965881347656,10.30825190224337,10.655452118348222,102110.0,8.0,0.0,987.0,20.25,-1.5,-55.0625,0.0625,0.25,0.0625,267.875,0.1875,0.625,0.0025634765625,0.00543212890625,-0.7197265625,-0.6942138671875,4.0,11.0,7.0,3.0,-11.0,980.0,2373,2107,1248,2373,2107,1248,34.519320942340265,31.58675463716125,-124.36633259600444,
113,10.602060079574585,0.09100914001464844,10.987907366656188,10.658305947322475,102110.0,7.0,0.0,985.0,20.6875,-1.5,-56.25,0.0625,-0.0625,0.0625,267.875,0.1875,0.625,0.0025634765625,0.00543212890625,-0.7197265625,-0.6942138671875,3.0,10.0,4.0,3.0,-11.0,980.0,2414,2040,1423,2414,2040,1423,66.55015678631365,-27.532039574479438,33.27192677958003,
114,10.692069053649902,0.09000897407531738,11.110003311039003,10.662108468246783,102110.0,7.0,0.0,977.0,20.25,-2.1875,-55.5,0.0625,-0.1875,0.0,267.875,0.1875,0.625,0.0025634765625,0.00543212890625,-0.7197265625,-0.6942138671875,4.0,10.0,-2.0,3.0,-11.0,980.0,2361,2088,1350,2361,2088,1350,16.085871201417326,15.650499710355636,-31.739340193797872,
115,10.786078453063965,0.0940093994140625,10.637234215224801,10.661891669008984,102110.0,5.0,0.0,987.0,20.0,-1.5,-55.0625,0.375,-0.3125,-0.0625,267.875,0.1875,0.625,0.0025634765625,0.00543212890625,-0.7197265625,-0.6942138671875,1.0,8.0,0.0,3.0,-11.0,980.0,2371,2045,1382,2371,2045,1382,23.03792946463129,-20.774471253951063,-3.0852658925615266,
116,10.877087354660034,0.09100890159606934,10.987936151986148,10.66461969254136,102112.25,7.0,0.0,991.0,20.0,-1.875,-56.75,0.25,-0.0625,0.0625,267.875,0.1875,0.625,0.0025634765625,0.00543212890625,-0.7197265625,-0.6942138671875,2.0,10.0,7.0,3.0,-11.0,980.0,2317,2032,1584,2317,2032,1584,-24.423829624103714,-30.173761055534964,168.05865848915826,
117,10.970096826553345,0.09300947189331055,10.751593140396299,10.66535709300205,102112.25,8.0,0.0,991.0,20.6875,-1.5,-55.875,0.0,-0.125,0.125,267.875,0.1875,0.625,0.0025634765625,0.00543212890625,-0.7197265625,-0.6942138671875,4.0,9.0,5.0,3.0,-11.0,980.0,2367,2095,1372,2367,2095,1372,18.850438847478024,24.305596869803672,-20.390864638336097,
118,11.065106391906738,0.09500956535339355,10.52525602322716,10.664154127456722,102112.25,6.0,0.0,983.0,20.25,-1.875,-55.875,-0.125,0.0625,-0.0625,267.875,0.1875,0.625,0.0025634765625,0.00543212890625,-0.7197265625,-0.6942138671875,2.0,11.0,2.0,3.0,-11.0,980.0,2333,2050,1347,2333,2050,1347,-10.156165212586487,-14.035946209653321,-39.0818859058965,
119,11.15811562538147,0.09300923347473145,10.751620700881036,10.664883211042337,102112.25,6.0,-2.0,983.0,21.0625,-0.6875,-55.5,0.0625,0.125,-0.125,267.875,0.1875,0.625,0.0025634765625,0.00543212890625,-0.7197265625,-0.6942138671875,2.0,8.0,2.0,3.0,-11.0,980.0,2287,2056,1447,2287,2056,1447,-47.45638101373795,-7.987929587702977,46.714898705641495,
120,11.25012469291687,0.09200906753540039,10.868494016801671,10.666548440618845,102111.5,6.0,-3.0,984.0,20.25,-1.5,-55.0625,-0.1875,0.25,-0.0625,267.875,0.1875,0.625,0.0025634765625,0.00543212890625,-0.7197265625,-0.6942138671875,2.0,7.0,4.0,3.0,-11.0,980.0,2360,2024,1523,2360,2024,1523,17.289565192762055,-34.15282826684917,106.72027849163048,
121,11.346134424209595,0.09600973129272461,10.41561086085216,10.664425034646037,102111.5,6.0,0.0,975.0,20.25,-1.0625,-55.5,-0.1875,0.0625,0.0625,267.875,0.1875,0.625,0.0025634765625,0.00543212890625,-0.7197265625,-0.6942138671875,2.0,10.0,-5.0,3.0,-11.0,980.0,2329,2055,1420,2329,2055,1420,-8.90379445193473,-6.6609973654476775,15.896607310356458,
122,11.436143636703491,0.09000921249389648,11.109973882593517,10.667931767527794,102111.5,8.0,-1.0,983.0,20.25,0.0,-55.875,-0.3125,0.1875,-0.0625,267.875,0.1875,0.625,0.0025634765625,0.00543212890625,-0.7197265625,-0.6942138671875,4.0,9.0,3.0,3.0,-11.0,980.0,2380,2036,1473,2380,2036,1473,35.41066515780899,-22.401992358542522,60.01237196232316,
123,11.530152797698975,0.0940091609954834,10.637261192534675,10.667681700154624,102111.5,5.0,-3.0,988.0,21.0625,-0.6875,-56.25,-0.125,0.1875,-0.0625,267.875,0.1875,0.625,0.0025634765625,0.00543212890625,-0.7197265625,-0.6942138671875,2.0,7.0,8.0,3.0,-11.0,980.0,2334,2049,1498,2334,2049,1498,-4.99313520330012,-10.029140493207537,75.86814711685352,
124,11.622162103652954,0.09200930595397949,10.86846585387974,10.669271250400616,102109.5,8.0,-4.0,988.0,20.6875,-1.5,-55.5,-0.0625,0.125,-0.0625,267.875,0.1875,0.625,0.0025634765625,0.00543212890625,-0.7197265625,-0.6942138671875,5.0,11.0,6.0,3.0,-11.0,980.0,2312,2071,1463,2312,2071,1463,-23.019844949118294,9.154284481241724,40.73578431264991,
125,11.71017074584961,0.08800864219665527,11.362520487084671,10.674481415593643,102109.5,7.0,1.0,989.0,20.0,-1.5,-55.0625,0.25,-0.1875,0.125,267.875,0.1875,0.625,0.0025634765625,0.00543212890625,-0.7197265625,-0.6942138671875,4.0,12.0,9.0,3.0,-11.0,980.0,2245,2044,1652,2245,2044,1652,-79.866560080906,-15.173275516462919,202.9578895691191,
126,11.807180404663086,0.09700965881347656,10.30825190224337,10.671472416076409,102109.5,9.0,0.0,985.0,20.25,-1.0625,-56.25,0.1875,-0.25,-0.0625,267.875,0.1875,0.625,0.0025634765625,0.00543212890625,-0.7197265625,-0.6942138671875,5.0,10.0,4.0,3.0,-11.0,980.0,2272,2060,1527,2272,2060,1527,-52.28597924991228,-1.3051669581314425,88.11320751320449,
127,11.897189617156982,0.09000921249389648,11.109973882593517,10.674789936679904,102109.5,8.0,0.0,982.0,21.0625,-0.6875,-55.875,-0.25,0.1875,0.0,267.875,0.1875,0.625,0.0025634765625,0.00543212890625,-0.7197265625,-0.6942138671875,4.0,10.0,2.0,3.0,-11.0,980.0,2295,2032,1547,2295,2032,1547,-28.58419510159592,-25.15777279322694,98.43785031388177,
128,11.988198518753052,0.09100890159606934,10.987936151986148,10.677167199039166,102109.5,9.0,0.0,982.0,21.0625,-1.5,-56.25,-0.125,0.125,0.0,267.875,0.1875,0.625,0.0025634765625,0.00543212890625,-0.7197265625,-0.6942138671875,3.0,9.0,6.0,3.0,-11.0,980.0,2338,2077,1431,2338,2077,1431,9.9978445204531,14.852574478483529,-7.286109869827385,
129,12.0792076587677,0.09100914001464844,10.987907366656188,10.679508428383155,102109.75,8.0,-1.0,988.0,20.25,-1.5,-56.0,0.0,-0.125,-0.1875,267.875,0.1875,0.625,0.0025634765625,0.00543212890625,-0.7197265625,-0.6942138671875,4.0,9.0,8.0,3.0,-11.0,980.0,2330,2070,1370,2330,2070,1370,2.4594595545180002,7.786444173012612,-58.33528031103479,
130,12.170216798782349,0.09100914001464844,10.987907366656188,10.681814642201504,102109.75,7.0,-3.0,990.0,20.6875,-1.5,-56.0,-0.0625,-0.0625,-0.0625,267.875,0.1875,0.625,0.0025634765625,0.00543212890625,-0.7197265625,-0.6942138671875,3.0,7.0,10.0,3.0,-11.0,980.0,2314,2064,1396,2314,2064,1396,-11.26702070690031,2.1104747682954823,-31.84567317903943,
131,12.265226364135742,0.09500956535339355,10.52525602322716,10.680601899289185,102109.75,6.0,-1.0,989.0,21.0625,-0.6875,-55.875,0.0,0.0,0.0625,267.875,0.1875,0.625,0.0025634765625,0.00543212890625,-0.7197265625,-0.6942138671875,2.0,9.0,9.0,3.0,-11.0,980.0,2317,2070,1367,2317,2070,1367,-7.968125971103513,6.810636493867678,-52.89645304411964,
132,12.35623550415039,0.09100914001464844,10.987907366656188,10.682865339986595,102109.75,6.0,0.0,984.0,20.6875,-2.5625,-55.5,0.25,-0.125,0.0625,267.875,0.1875,0.625,0.0025634765625,0.00543212890625,-0.7197265625,-0.6942138671875,3.0,10.0,3.0,3.0,-11.0,980.0,2300,2043,1468,2300,2043,1468,-21.737751014281493,-16.557641931438347,36.629529430762744,
133,12.448244571685791,0.09200906753540039,10.868494016801671,10.684237382555589,102108.0,6.0,0.0,981.0,21.5,-1.5,-55.875,0.125,0.1875,0.125,267.875,0.1875,0.625,0.0025634765625,0.00543212890625,-0.7197265625,-0.6942138671875,3.0,10.0,1.0,3.0,-11.0,980.0,2312,2070,1512,2312,2070,1512,-10.021455714657073,7.312895558213079,70.63151339351808,
134,12.542253971099854,0.0940093994140625,10.637234215224801,10.683885074306886,102108.0,8.0,0.0,986.0,20.6875,-0.375,-56.75,-0.25,-0.0625,0.0625,267.875,0.1875,0.625,0.0025634765625,0.00543212890625,-0.7197265625,-0.6942138671875,4.0,10.0,-1.0,3.0,-11.0,980.0,2282,2054,1536,2282,2054,1536,-33.82181466179777,-6.355269952926283,84.85049569195263,
135,12.637263536453247,0.09500956535339355,10.52525602322716,10.682692468237382,102108.0,6.0,0.0,988.0,20.0,-1.0625,-54.6875,0.0,0.0,0.125,267.875,0.1875,0.625,0.0025634765625,0.00543212890625,-0.7197265625,-0.6942138671875,2.0,12.0,2.0,3.0,-11.0,980.0,2255,2054,1496,2255,2054,1496,-53.0995422051286,-5.865914166550959,45.89921897213264,
136,12.729272842407227,0.09200930595397949,10.86846585387974,10.684035269235466,102108.0,6.0,0.0,988.0,20.25,-1.0625,-55.5,0.0625,-0.25,-0.0625,267.875,0.1875,0.625,0.0025634765625,0.00543212890625,-0.7197265625,-0.6942138671875,4.0,10.0,9.0,3.0,-11.0,980.0,2247,2053,1431,2247,2053,1431,-55.70585242132362,-6.251110646475276,-12.031692487389677,
137,12.82328200340271,0.0940091609954834,10.637261192534675,10.683692362348928,102113.75,7.0,-2.0,987.0,20.25,-0.375,-54.6875,0.25,-0.1875,-0.125,267.875,0.1875,0.625,0.0025634765625,0.00543212890625,-0.7197265625,-0.6942138671875,5.0,12.0,11.0,3.0,-11.0,980.0,2302,2039,1596,2302,2039,1596,-6.3677006344973535,-17.23674269224906,124.04115128529237,
138,12.917291402816772,0.0940093994140625,10.637234215224801,10.683354249475817,102113.75,8.0,1.0,987.0,19.5625,-0.375,-55.0625,0.5625,-0.25,0.0,267.875,0.1875,0.625,0.0025634765625,0.00543212890625,-0.7197265625,-0.6942138671875,4.0,12.0,6.0,3.0,-11.0,980.0,2283,2047,1390,2283,2047,1390,-21.439661342514942,-9.356977228367406,-54.237826485570935,
139,13.009300708770752,0.09200930595397949,10.86846585387974,10.684663465906931,102113.75,7.0,1.0,978.0,21.0625,0.0,-55.0625,0.375,-0.25,0.0,267.875,0.1875,0.625,0.00250244140625,0.00537109375,-0.7197265625,-0.6942138671875,4.0,12.0,4.0,3.0,-10.0,980.0,2271,2036,1525,2271,2036,1525,-29.83126986812617,-17.842080560019255,62.91618870489793,
140,13.098309516906738,0.08900880813598633,11.234843168242573,10.688402180395416,102113.75,7.0,-1.0,980.0,21.0625,-0.6875,-54.6875,-0.125,0.375,-0.0625,267.875,0.1875,0.625,0.00244140625,0.00531005859375,-0.7197265625,-0.6942138671875,3.0,9.0,0.0,3.0,-10.0,980.0,2219,2031,1644,2219,2031,1644,-72.51857413392372,-20.793654976671164,161.01651012522748,
141,13.193319082260132,0.09500956535339355,10.52525602322716,10.687227309585046,102108.75,6.0,-2.0,988.0,21.0625,-1.0625,-55.875,-1.0,0.625,0.0625,267.875,0.1875,0.625,0.0025634765625,0.00531005859375,-0.7197265625,-0.6942138671875,1.0,7.0,-1.0,3.0,-11.0,980.0,2322,2053,1377,2322,2053,1377,16.54116159460301,-1.362759840120674,-67.77049973594217,
142,13.290328741073608,0.09700965881347656,10.30825190224337,10.684461066877198,102108.75,5.0,-3.0,991.0,20.25,-0.375,-55.875,-0.3125,0.25,0.0,267.875,0.1875,0.625,0.0025634765625,0.00531005859375,-0.7197265625,-0.6942138671875,5.0,10.0,-4.0,3.0,-10.0,980.0,2267,2054,1399,2267,2054,1399,-28.38795465418209,-0.46409193595864273,-45.08999253387436,
143,13.384338140487671,0.0940093994140625,10.637234215224801,10.684129353204586,102108.75,7.0,0.0,990.0,20.25,-1.0625,-55.875,0.1875,-0.0625,-0.125,267.875,0.1875,0.625,0.00250244140625,0.0052490234375,-0.7197265625,-0.6942138671875,7.0,8.0,11.0,3.0,-10.0,980.0,2193,2019,1664,2193,2019,1664,-86.81304270416099,-29.095703066920667,175.434701052896,
144,13.47634744644165,0.09200930595397949,10.86846585387974,10.685387904422303,102108.75,10.0,-256.0,989.0,20.0,0.75,-55.875,0.5,-0.5,0.0,267.875,0.1875,0.625,0.0025634765625,0.0052490234375,-0.7197265625,-0.6942138671875,3.0,9.0,9.0,3.0,-10.0,980.0,2268,2041,1403,2268,2041,1403,-17.363048109785097,-8.444152774295496,-56.49732919359812,
145,13.569356679916382,0.09300923347473145,10.751620700881036,10.685841887744786,102105.5,7.0,1.0,987.0,20.6875,0.0,-56.25,0.1875,-0.25,0.0625,267.875,0.1875,0.5625,0.00250244140625,0.005126953125,-0.7197265625,-0.6942138671875,4.0,11.0,6.0,3.0,-10.0,980.0,194,2436,-890,194,2436,-890,-1733.0384160946314,319.216590606622,-1950.4639374139476,
146,13.663366079330444,0.0940093994140625,10.637234215224801,10.685507447602147,102105.5,9.0,1.0,986.0,20.6875,-0.6875,-56.6875,-0.25,0.3125,0.0625,267.875,0.1875,0.625,0.0025634765625,0.00518798828125,-0.7197265625,-0.6942138671875,4.0,9.0,6.0,3.0,-10.0,980.0,2294,2066,1508,2294,2066,1508,120.44631454650539,-8.41788966184248,163.84453467132516,
147,13.759375810623169,0.09600973129272461,10.41561086085216,10.683624171854225,102105.5,8.0,-4.0,984.0,20.25,-1.0625,-56.0,-0.8125,0.5625,-0.0625,267.875,0.1875,0.625,0.00262451171875,0.0052490234375,-0.7197265625,-0.6942138671875,4.0,6.0,4.0,3.0,-10.0,980.0,2302,2064,1271,2302,2064,1271,117.58796461670941,-9.373716230451842,-38.84597709805794,
148,13.8523850440979,0.09300923347473145,10.751620700881036,10.684080721756901,102105.5,6.0,-2.0,979.0,20.6875,-1.5,-55.5,-0.5625,0.5,0.0,267.875,0.1875,0.625,0.0025634765625,0.00518798828125,-0.7197265625,-0.6942138671875,3.0,8.0,-1.0,3.0,-10.0,980.0,2372,2083,1369,2372,2083,1369,166.48492691897158,7.077681004681903,45.27689294734082,
149,13.946394443511963,0.0940093994140625,10.637234215224801,10.683764940358234,102110.5,7.0,-1.0,977.0,20.6875,-1.0625,-56.25,0.125,-0.125,0.0,267.875,0.1875,0.625,0.0025634765625,0.00518798828125,-0.7197265625,-0.6942138671875,4.0,7.0,6.0,3.0,-10.0,980.0,2288,2093,1185,2288,2093,1185,84.86395664213678,14.723369913044493,-108.91776217090941,
150,14.041403770446777,0.09500932693481445,10.525282435545472,10.6826925891632,102110.5,6.0,0.0,986.0,20.6875,-1.0625,-55.5,0.5625,-0.4375,0.0,267.875,0.1875,0.625,0.0025634765625,0.00518798828125,-0.7197265625,-0.6942138671875,3.0,10.0,5.0,3.0,-10.0,980.0,2146,2029,1644,2146,2029,1644,-36.75400616956195,-38.27892141262802,271.4639626357342,
151,14.137413501739502,0.09600973129272461,10.41561086085216,10.680878788854876,102110.5,9.0,2.0,990.0,20.6875,-1.0625,-56.25,0.8125,-0.625,0.0625,267.875,0.1875,0.625,0.00250244140625,0.005126953125,-0.7197265625,-0.6942138671875,6.0,13.0,10.0,3.0,-10.0,980.0,2235,2066,1486,2235,2066,1486,37.454233534914174,-5.657369121287861,123.84491577965531,
152,14.231422901153564,0.0940093994140625,10.637234215224801,10.680590483168007,102110.5,9.0,0.0,989.0,20.6875,-0.375,-55.5,0.5,-0.5,-0.0625,267.875,0.1875,0.625,0.00250244140625,0.005126953125,-0.7197265625,-0.6942138671875,5.0,10.0,9.0,3.0,-10.0,980.0,2285,2066,1369,2285,2066,1369,75.52360928134127,-5.221751698948696,18.478014219661617,
153,14.324432373046875,0.09300947189331055,10.751593140396299,10.681051508043538,102108.25,6.0,0.0,986.0,20.6875,-1.875,-55.875,-0.25,0.4375,-0.1875,267.875,0.1875,0.5625,0.00244140625,0.00518798828125,-0.7197265625,-0.6942138671875,2.0,9.0,5.0,3.0,-10.0,980.0,2268,2060,1506,2268,2060,1506,55.63445594589924,-9.786912848992735,130.47376316278823,
154,14.416441440582275,0.09200906753540039,10.868494016801671,10.682247809538495,102108.25,6.0,0.0,983.0,20.6875,-1.5,-55.875,-0.75,0.5,0.0625,267.875,0.1875,0.625,0.0025634765625,0.00518798828125,-0.7197265625,-0.6942138671875,2.0,9.0,3.0,3.0,-10.0,980.0,2221,2040,1475,2221,2040,1475,12.017522991259753,-25.770801345494867,94.48418818114794,
155,14.507450580596924,0.09100914001464844,10.987907366656188,10.684165294163103,102108.25,5.0,-3.0,979.0,20.25,-0.6875,-53.875,-0.25,0.1875,0.0625,267.875,0.1875,0.625,0.0025634765625,0.00531005859375,-0.7197265625,-0.6942138671875,2.0,7.0,0.0,3.0,-10.0,980.0,2298,2084,1319,2298,2084,1319,76.23947649783729,13.440580516339402,-44.77783759707455,
156,14.599459886550903,0.09200930595397949,10.86846585387974,10.68532680059678,102108.25,7.0,0.0,979.0,20.6875,0.0,-56.25,0.1875,0.125,0.0,267.875,0.1875,0.625,0.00250244140625,0.0052490234375,-0.7197265625,-0.6942138671875,3.0,10.0,0.0,3.0,-10.0,980.0,2298,2046,1321,2298,2046,1321,70.36903680750382,-19.39547527187085,-39.656200360602334,
157,14.689468622207642,0.09000873565673828,11.110032739640394,10.687929157808084,102111.0,7.0,1.0,983.0,20.6875,-0.6875,-55.5,0.4375,-0.375,-0.25,267.875,0.1875,0.5625,0.00250244140625,0.00518798828125,-0.7197265625,-0.6942138671875,3.0,11.0,2.0,3.0,-10.0,980.0,2256,2021,1595,2256,2021,1595,29.020775093328993,-39.28883669974455,197.79679780809707,
158,14.78047800064087,0.09100937843322754,10.987878581477048,10.68977606767178,102111.0,6.0,-3.0,989.0,20.6875,-1.5,-55.0625,0.375,-0.1875,0.0625,267.875,0.1875,0.5625,0.00250244140625,0.00518798828125,-0.7197265625,-0.6942138671875,3.0,6.0,9.0,3.0,-10.0,980.0,2235,2032,1676,2235,2032,1676,9.018775744894278,-26.956863115353165,251.09784308954593,
159,14.87248706817627,0.09200906753540039,10.868494016801671,10.690881711386641,102111.0,9.0,1.0,988.0,20.6875,-1.5,-55.0625,0.0,-0.0625,-0.1875,267.875,0.1875,0.5625,0.00250244140625,0.00518798828125,-0.7197265625,-0.6942138671875,5.0,11.0,8.0,3.0,-10.0,980.0,2250,2070,1488,2250,2070,1488,20.87744060194335,6.920028837690715,74.43098978442993,
160,14.962496042251587,0.09000897407531738,11.110003311039003,10.693402995608938,102111.0,6.0,-2.0,987.0,21.0625,-0.6875,-55.5,-0.25,0.25,-0.0625,267.875,0.1875,0.5625,0.00250244140625,0.00518798828125,-0.7197265625,-0.6942138671875,2.0,7.0,6.0,3.0,-10.0,980.0,2318,2065,1419,2318,2065,1419,77.44185501219394,2.1098353424385135,9.672355979478596,
161,15.055505275726318,0.09300923347473145,10.751620700881036,10.693762650369296,102110.5,5.0,0.0,979.0,20.0,-1.875,-55.875,-0.25,0.125,0.0,267.875,0.1875,0.5625,0.00250244140625,0.00518798828125,-0.7197265625,-0.6942138671875,1.0,11.0,-1.0,3.0,-10.0,980.0,2240,2025,1684,2240,2025,1684,6.904598246763513,-31.16761373764284,228.3144049705363,
162,15.145514488220215,0.09000921249389648,11.109973882593517,10.696236177780515,102110.5,9.0,-1.0,983.0,20.25,-1.5,-55.5,0.3125,-0.3125,-0.0625,267.875,0.1875,0.5625,0.00250244140625,0.00518798828125,-0.7197265625,-0.6942138671875,5.0,9.0,2.0,3.0,-10.0,980.0,2268,2044,1423,2268,2044,1423,30.32604787263434,-12.513815689610023,-12.542949330676919,
163,15.237523555755615,0.09200906753540039,10.868494016801671,10.697276326009721,102110.5,8.0,1.0,990.0,20.6875,-1.5,-55.875,0.3125,-0.1875,-0.125,267.875,0.1875,0.5625,0.00250244140625,0.00518798828125,-0.7197265625,-0.6942138671875,5.0,8.0,10.0,3.0,-10.0,980.0,2298,2063,1358,2298,2063,1358,53.09716336525335,4.350354865070793,-65.97395478630716,
164,15.331532955169678,0.0940093994140625,10.637234215224801,10.696908161730848,102110.5,7.0,0.0,988.0,20.25,0.0,-56.25,-0.0625,-0.125,0.0,267.875,0.1875,0.5625,0.00250244140625,0.00518798828125,-0.7197265625,-0.6942138671875,3.0,9.0,11.0,3.0,-10.0,980.0,2261,2018,1714,2261,2018,1714,18.703201506953388,-32.84263901529359,230.69390403998077,
165,15.42454218864441,0.09300923347473145,10.751620700881036,10.697238075660584,102109.75,8.0,0.0,987.0,20.25,-1.5,-55.0625,-0.25,0.1875,0.0,267.875,0.1875,0.5625,0.00250244140625,0.00518798828125,-0.7197265625,-0.6942138671875,4.0,9.0,6.0,3.0,-10.0,980.0,2334,2072,1393,2334,2072,1393,77.69791495057028,14.391483063147358,-52.81733543477429,
166,15.522552013397217,0.09800982475280762,10.203058749692884,10.694117813664183,102109.75,6.0,-3.0,980.0,21.0625,-2.1875,-56.25,0.0,0.0625,0.0625,267.875,0.1875,0.5625,0.00250244140625,0.00518798828125,-0.7197265625,-0.6942138671875,1.0,9.0,7.0,3.0,-10.0,980.0,2238,2037,1494,2238,2037,1494,-3.7058347783534344,-14.21390446313731,30.598787290064884,
167,15.61756157875061,0.09500956535339355,10.52525602322716,10.693090541561984,102109.75,8.0,-4.0,987.0,20.6875,0.0,-55.0625,-0.0625,-0.0625,-0.0625,267.875,0.1875,0.5625,0.00250244140625,0.00518798828125,-0.7197265625,-0.6942138671875,5.0,6.0,6.0,3.0,-10.0,980.0,2280,2043,1502,2280,2043,1502,30.618192478696415,-8.25676553674479,34.72623837903782,
168,15.717571496963501,0.10000991821289062,9.999008277072129,10.688674139796733,102109.75,8.0,-2.0,983.0,20.6875,-1.0625,-55.875,-0.0625,0.25,0.1875,267.875,0.1875,0.5625,0.00250244140625,0.00518798828125,-0.7197265625,-0.6942138671875,3.0,9.0,5.0,3.0,-10.0,980.0,2330,2037,1475,2330,2037,1475,66.7567735245645,-12.240536414422767,11.264379815818948,
169,15.813581228256226,0.09600973129272461,10.41561086085216,10.687016278009516,102109.75,6.0,-1.0,979.0,20.6875,-1.5,-55.0625,-0.3125,0.125,0.0,267.875,0.1875,0.5625,0.00250244140625,0.00518798828125,-0.7197265625,-0.6942138671875,2.0,10.0,2.0,3.0,-10.0,980.0,2261,2075,1485,2261,2075,1485,6.278361459465501,19.178062268341208,18.41704293285705,
170,15.907590627670288,0.0940093994140625,10.637234215224801,10.686722079979562,102109.75,7.0,-1.0,980.0,21.0625,-0.375,-55.0625,-0.1875,0.125,-0.0625,267.875,0.1875,0.5625,0.00250244140625,0.00518798828125,-0.7197265625,-0.6942138671875,5.0,7.0,2.0,3.0,-10.0,980.0,2348,2088,1358,2348,2088,1358,77.0537596348776,28.349222923118962,-87.02258276365629,
171,16.00160002708435,0.0940093994140625,10.637234215224801,10.686431338776432,102109.75,6.0,0.0,987.0,20.0,0.0,-54.6875,0.1875,0.0625,-0.125,267.875,0.1875,0.5625,0.00250244140625,0.00518798828125,-0.7197265625,-0.6942138671875,3.0,9.0,0.0,3.0,-10.0,980.0,2250,2052,1657,2250,2052,1657,-9.147949245094324,-3.320080486564347,164.57919944626585,
172,16.098609685897827,0.09700965881347656,10.30825190224337,10.684152442721173,102109.75,9.0,0.0,986.0,21.5,-1.875,-55.875,0.125,-0.25,-0.125,267.875,0.1875,0.5625,0.00250244140625,0.00518798828125,-0.7197265625,-0.6942138671875,5.0,10.0,0.0,3.0,-10.0,980.0,2265,2030,1609,2265,2030,1609,3.462473793869032,-20.52661301149916,113.80730205821189,
173,16.190618753433228,0.09200906753540039,10.868494016801671,10.685200030623616,102108.25,8.0,0.0,990.0,20.6875,-1.5,-55.5,0.125,0.0,-0.125,267.875,0.1875,0.5625,0.00250244140625,0.00518798828125,-0.7197265625,-0.6942138671875,3.0,7.0,7.0,3.0,-10.0,980.0,2237,2036,1672,2237,2036,1672,-20.236609788483285,-13.92481957385135,157.7672042752345,
174,16.287628412246704,0.09700965881347656,10.30825190224337,10.6829549149813,102108.25,8.0,0.0,988.0,20.25,-0.6875,-56.25,-0.125,0.125,0.0625,267.875,0.1875,0.5625,0.00250244140625,0.00518798828125,-0.7197265625,-0.6942138671875,4.0,10.0,8.0,3.0,-10.0,980.0,2318,2127,1216,2318,2127,1216,45.61417627952183,59.377312612354494,-216.32421124552775,
175,16.441643953323364,0.06600642204284668,15.150040996781662,10.643704516215795,102108.25,6.0,-2.0,988.0,20.25,-0.375,-55.0625,-0.1875,0.0625,0.0625,267.875,0.1875,0.5625,0.00250244140625,0.00518798828125,-0.7197265625,-0.6942138671875,5.0,10.0,8.0,3.0,-10.0,980.0,2154,2021,1720,2154,2021,1720,-149.21283300136017,-68.84937507452874,388.2755440234807,
176,16.532653093338013,0.09100914001464844,10.987907366656188,10.645599288048984,102108.25,8.0,-2.0,989.0,20.6875,-2.5625,-55.875,-0.1875,0.125,0.0625,267.875,0.1875,0.5625,0.00250244140625,0.00518798828125,-0.7197265625,-0.6942138671875,2.0,9.0,7.0,3.0,-10.0,980.0,2327,2091,1293,2327,2091,1293,8.646469170971642,-4.323152487513177,-2.8930791746161617,
177,16.627662420272827,0.09500932693481445,10.525282435545472,10.644911805774788,102110.5,8.0,-2.0,987.0,20.6875,-0.6875,-55.875,-0.125,0.0,0.0,267.875,0.1875,0.5625,0.00250244140625,0.00518798828125,-0.7197265625,-0.6942138671875,4.0,8.0,6.0,3.0,-10.0,980.0,2275,2026,1622,2275,2026,1622,-34.16253982711725,-56.669308335879755,263.96666786150274,
178,16.72167181968689,0.0940093994140625,10.637234215224801,10.644868642287049,102110.5,8.0,0.0,986.0,20.6875,-0.6875,-55.5,0.0625,-0.0625,-0.0625,267.875,0.1875,0.5625,0.00250244140625,0.00518798828125,-0.7197265625,-0.6942138671875,5.0,10.0,5.0,3.0,-10.0,980.0,2254,2031,1689,2254,2031,1689,-48.73243198644772,-48.21043642115547,298.5187257525118,
179,16.81368112564087,0.09200930595397949,10.86846585387974,10.646092230631455,102110.5,7.0,0.0,985.0,19.5625,-1.5,-55.875,-0.0625,0.0,0.0625,267.875,0.1875,0.5625,0.00250244140625,0.00518798828125,-0.7197265625,-0.6942138671875,3.0,9.0,4.0,3.0,-10.0,980.0,2235,2061,1602,2235,2061,1602,-60.88060026771731,-19.392076694264297,202.72493111442802,
180,16.90769052505493,0.0940093994140625,10.637234215224801,10.646042978682637,102110.5,7.0,-1.0,977.0,21.5,-1.5,-55.875,-0.3125,0.0625,-0.0625,267.875,0.1875,0.5625,0.00250244140625,0.00518798828125,-0.7197265625,-0.6942138671875,3.0,8.0,-3.0,3.0,-10.0,980.0,2297,2062,1371,2297,2062,1371,-5.410637903619886,-17.079819754233636,-2.0893735675864775,
181,17.002699851989746,0.09500932693481445,10.525282435545472,10.645368181266718,102108.0,7.0,0.0,987.0,21.0625,-1.0625,-55.875,-0.125,0.0,-0.0625,267.875,0.1875,0.5625,0.00250244140625,0.00518798828125,-0.7197265625,-0.6942138671875,4.0,9.0,7.0,3.0,-10.0,980.0,2288,2047,1630,2288,2047,1630,-12.288039512874168,-27.92137484621267,207.97721580920106,
182,17.09070897102356,0.08800911903381348,11.36245892446436,10.6490608615811,102108.0,8.0,0.0,991.0,20.25,-1.0625,-56.25,-0.125,0.0,0.0625,267.875,0.1875,0.5625,0.00250244140625,0.00518798828125,-0.7197265625,-0.6942138671875,5.0,10.0,10.0,3.0,-10.0,980.0,2335,2039,1401,2335,2039,1401,29.778878377253655,-32.77070368052434,-8.391268023187422,
183,17.18171787261963,0.09100890159606934,10.987936151986148,10.650855831571091,102108.0,9.0,0.0,988.0,21.0625,-1.5,-55.5,-0.0625,0.1875,-0.0625,267.875,0.1875,0.5625,0.00250244140625,0.00518798828125,-0.7197265625,-0.6942138671875,6.0,10.0,7.0,3.0,-10.0,980.0,191,2401,-894,191,2401,-894,-1786.490498716884,276.03037280333785,-1949.478277483634,
184,17.27372717857361,0.09200930595397949,10.86846585387974,10.652014941409648,102108.0,9.0,0.0,988.0,20.25,-0.6875,-56.75,-0.125,0.25,0.0625,267.875,0.1875,0.5625,0.00250244140625,0.00518798828125,-0.7197265625,-0.6942138671875,6.0,10.0,7.0,3.0,-10.0,980.0,2273,2076,1368,2273,2076,1368,93.43650458319257,-17.207323895859673,93.63572151625544,
185,17.370736837387085,0.09700965881347656,10.30825190224337,10.650095141722716,102108.0,6.0,0.0,984.0,20.25,-1.875,-55.5,-0.125,-0.125,0.0625,267.875,0.1875,0.5625,0.00250244140625,0.00518798828125,-0.7197265625,-0.6942138671875,3.0,9.0,3.0,3.0,-10.0,980.0,2328,2084,1272,2328,2084,1272,129.8973405362874,-9.532476784096563,10.227172898120799,
186,17.462746143341064,0.09200930595397949,10.86846585387974,10.651245713202213,102108.0,5.0,0.0,984.0,20.25,-0.6875,-56.25,0.1875,0.0,-0.125,267.875,0.1875,0.5625,0.00250244140625,0.00518798828125,-0.7197265625,-0.6942138671875,1.0,10.0,3.0,3.0,-10.0,980.0,2314,2076,1449,2314,2076,1449,108.17903912451092,-15.493451037711047,157.56600170749246,
187,17.560755968093872,0.09800982475280762,10.203058749692884,10.648744298921994,102108.0,6.0,-1.0,977.0,21.0625,-1.875,-55.875,-0.1875,0.0625,0.0,267.875,0.1875,0.5625,0.00250244140625,0.00518798828125,-0.7197265625,-0.6942138671875,2.0,9.0,-2.0,3.0,-10.0,980.0,2304,2055,1453,2304,2055,1453,91.99289787466007,-30.79880130606069,148.57596167092095,
188,17.652765035629272,0.09200906753540039,10.868494016801671,10.649889670006493,102108.0,7.0,-1.0,978.0,21.0625,-0.375,-55.5,0.1875,-0.125,0.0625,267.875,0.1875,0.5625,0.00250244140625,0.00518798828125,-0.7197265625,-0.6942138671875,4.0,9.0,2.0,3.0,-10.0,980.0,2313,2023,1583,2313,2023,1583,92.4413110919548,-55.20726286289334,245.92923773044475,
189,17.746774435043335,0.0940093994140625,10.637234215224801,10.64982263068576,102112.0,7.0,-1.0,984.0,20.6875,-1.0625,-56.6875,0.0625,-0.1875,-0.0625,267.875,0.1875,0.5625,0.00250244140625,0.00518798828125,-0.7197265625,-0.6942138671875,3.0,9.0,4.0,3.0,-10.0,980.0,2361,2079,1385,2361,2079,1385,124.63854779734514,-5.088549686401208,64.81741357988321,
190,17.84178400039673,0.09500956535339355,10.52525602322716,10.649159299079912,102112.0,6.0,-1.0,983.0,20.6875,-0.375,-55.5,0.0625,0.0625,0.0,267.875,0.1875,0.5625,0.00250244140625,0.00518798828125,-0.7197265625,-0.6942138671875,3.0,9.0,3.0,3.0,-10.0,980.0,2282,2044,1528,2282,2044,1528,51.016247227658766,-33.06229634314551,175.72006680598648,
191,17.936793565750122,0.09500956535339355,10.52525602322716,10.648502994688522,102112.0,4.0,-1.0,988.0,21.5,-1.0625,-55.0625,-0.1875,0.125,-0.0625,267.875,0.1875,0.5625,0.00250244140625,0.00518798828125,-0.7197265625,-0.6942138671875,3.0,9.0,10.0,3.0,-10.0,980.0,2246,2047,1668,2246,2047,1668,17.91198649474336,-28.085165383357833,275.6518815923143,
192,18.0338032245636,0.09700965881347656,10.30825190224337,10.646672674041348,102112.0,9.0,-1.0,985.0,21.0625,-0.6875,-56.25,-0.0625,0.0625,-0.0625,267.875,0.1875,0.5625,0.00250244140625,0.00518798828125,-0.7197265625,-0.6942138671875,6.0,6.0,8.0,3.0,-10.0,980.0,2360,2070,1337,2360,2070,1337,107.01859873254043,-7.6666935299662775,-8.299729522770662,
193,18.12781262397766,0.0940093994140625,10.637234215224801,10.646623726942039,102110.5,8.0,0.0,983.0,19.5625,-0.6875,-55.5,0.0625,-0.125,-0.0625,267.875,0.1875,0.5625,0.00250244140625,0.00518798828125,-0.7197265625,-0.6942138671875,2.0,9.0,8.0,3.0,-10.0,980.0,2286,2062,1409,2286,2062,1409,38.1672060717839,-13.628894404737352,51.31217613968898,
194,18.22682237625122,0.09900975227355957,10.100015170596976,10.643654499687987,102110.5,7.0,-1.0,983.0,20.6875,-1.5,-55.875,0.0625,-0.1875,0.0,267.875,0.1875,0.5625,0.00250244140625,0.00518798828125,-0.7197265625,-0.6942138671875,2.0,8.0,7.0,3.0,-10.0,980.0,2283,2064,1552,2283,2064,1552,32.89522769984864,-11.024067199300642,158.57240562037623,
195,18.32483220100403,0.09800982475280762,10.203058749692884,10.6412979863093,102110.5,7.0,0.0,983.0,20.6875,-1.0625,-55.0625,-0.25,0.0,0.0,267.875,0.1875,0.5625,0.00250244140625,0.00518798828125,-0.7197265625,-0.6942138671875,6.0,8.0,7.0,3.0,-10.0,980.0,2339,2092,1408,2339,2092,1408,74.35788449563601,11.822580639383363,33.23081497101258,
196,18.420841932296753,0.09600973129272461,10.41561086085216,10.64012170129741,102110.5,7.0,-2.0,981.0,21.0625,-1.0625,-54.6875,0.0,0.0,0.0625,267.875,0.1875,0.5625,0.00250244140625,0.00518798828125,-0.7197265625,-0.6942138671875,5.0,7.0,0.0,3.0,-10.0,980.0,2315,2063,1314,2315,2063,1314,49.38427851861725,-12.345817122132031,-44.716149192603325,
197,18.514851331710815,0.0940093994140625,10.637234215224801,10.64010704004917,102115.0,6.0,-2.0,980.0,21.0625,-0.375,-55.0625,0.0625,-0.125,-0.0625,267.875,0.1875,0.5625,0.00250244140625,0.00518798828125,-0.7197265625,-0.6942138671875,3.0,7.0,0.0,3.0,-10.0,980.0,2336,2026,1384,2336,2026,1384,62.78209679870223,-41.70066948290332,16.061686715288808,
198,18.606860399246216,0.09200906753540039,10.868494016801671,10.641236390854052,102115.0,9.0,-1.0,991.0,20.6875,-1.0625,-55.0625,0.0,-0.0625,-0.0625,267.875,0.1875,0.5625,0.00250244140625,0.00518798828125,-0.7197265625,-0.6942138671875,3.0,11.0,0.0,3.0,-10.0,980.0,2337,2055,1431,2337,2055,1431,58.78474938449588,-14.220370793201642,54.15801668501682,
199,18.70286989212036,0.09600949287414551,10.415636725743928,10.640078295355087,102115.0,7.0,-3.0,988.0,21.5,-1.5,-54.6875,-0.125,0.0625,-0.0625,267.875,0.1875,0.5625,0.00250244140625,0.00518798828125,-0.7197265625,-0.6942138671875,4.0,7.0,8.0,3.0,-10.0,980.0,2304,2056,1370,2304,2056,1370,27.792190761774375,-12.323398214242832,1.0656036994512945,
200,18.799879550933838,0.09700965881347656,10.30825190224337,10.638366030917762,102115.0,8.0,-1.0,988.0,21.5,-1.0625,-55.875,-0.125,0.0625,-0.125,267.875,0.1875,0.5625,0.00250244140625,0.00518798828125,-0.7197265625,-0.6942138671875,4.0,6.0,8.0,3.0,-10.0,980.0,2287,2056,1447,2287,2056,1447,12.15869033308118,-11.374496551746136,62.10117774299448,
201,18.891888856887817,0.09200930595397949,10.86846585387974,10.639486687786498,102107.0,4.0,-1.0,986.0,20.6875,-1.0625,-55.0625,-0.0625,0.125,-0.0625,267.875,0.1875,0.5625,0.00250244140625,0.00518798828125,-0.7197265625,-0.6942138671875,1.0,8.0,5.0,3.0,-10.0,980.0,2291,2081,1410,2291,2081,1410,14.56995866042889,10.423136451456818,26.355127839080527,
202,18.982897996902466,0.09100914001464844,10.987907366656188,10.641157110624592,102107.0,7.0,0.0,988.0,20.25,-1.875,-57.1875,0.1875,0.0625,0.0,267.875,0.1875,0.5625,0.00250244140625,0.00518798828125,-0.7197265625,-0.6942138671875,3.0,9.0,8.0,3.0,-10.0,980.0,2315,2049,1562,2315,2049,1562,33.7537246571565,-17.453648806746205,152.92825081481533,
203,19.07790756225586,0.09500956535339355,10.52525602322716,10.640579913576033,102107.0,9.0,0.0,980.0,20.6875,-1.0625,-55.875,0.0625,-0.0625,0.0625,267.875,0.1875,0.5625,0.00250244140625,0.00518798828125,-0.7197265625,-0.6942138671875,4.0,9.0,8.0,3.0,-10.0,980.0,2325,2077,1426,2325,2077,1426,39.259134996440366,6.582734137451009,30.932294426839732,
204,19.17091679573059,0.09300923347473145,10.751620700881036,10.641118636821338,102107.0,7.0,-2.0,977.0,19.5625,-0.6875,-55.5,0.1875,-0.0625,0.0625,267.875,0.1875,0.5625,0.00250244140625,0.00518798828125,-0.7197265625,-0.6942138671875,4.0,8.0,0.0,3.0,-10.0,980.0,2330,2070,1370,2330,2070,1370,40.375555571553654,0.28074005109240385,-17.81048070622595,
205,19.2639262676239,0.09300947189331055,10.751593140396299,10.64165202628164,102107.75,6.0,0.0,979.0,20.25,-1.0625,-55.875,0.125,-0.0625,0.0625,267.875,0.1875,0.5625,0.00250244140625,0.00518798828125,-0.7197265625,-0.6942138671875,3.0,10.0,-1.0,3.0,-10.0,980.0,2291,2070,1329,2291,2070,1329,4.979603591933937,0.25912306715828876,-50.38185323607767,
206,19.356935262680054,0.09300899505615234,10.75164826150707,10.64218055206113,102107.75,7.0,-2.0,988.0,20.0,-0.375,-54.6875,-0.0625,-0.25,-0.0625,267.875,0.1875,0.5625,0.00250244140625,0.00518798828125,-0.7197265625,-0.6942138671875,4.0,8.0,8.0,3.0,-10.0,980.0,2314,2077,1295,2314,2077,1295,23.637343186484046,6.034309003939411,-74.6502656855252,
207,19.44794464111328,0.09100937843322754,10.987878581477048,10.643798294365695,102107.75,9.0,0.0,988.0,19.5625,-0.6875,-55.5,0.0625,0.0625,0.0,267.875,0.1875,0.5625,0.00250244140625,0.00518798828125,-0.7197265625,-0.6942138671875,6.0,10.0,8.0,3.0,-10.0,980.0,2337,2101,1278,2337,2101,1278,41.27680072892062,25.87526682920566,-83.28532829089322,
208,19.540953874588013,0.09300923347473145,10.751620700881036,10.644311497530994,102107.75,6.0,0.0,989.0,21.0625,0.0,-55.5,-0.1875,0.0625,-0.0625,267.875,0.1875,0.5625,0.00250244140625,0.00518798828125,-0.7197265625,-0.6942138671875,2.0,9.0,8.0,3.0,-10.0,980.0,2288,2063,1374,2288,2063,1374,-2.4673778316304222,-7.576370887421085,2.603622208418173,
209,19.710970878601074,0.07600784301757812,13.156537013801756,10.603232143521543,102107.0,8.0,-1.0,990.0,20.6875,-0.6875,-56.25,-0.125,0.3125,0.0625,267.875,0.1875,0.5625,0.00250244140625,0.00518798828125,-0.7197265625,-0.6942138671875,5.0,9.0,10.0,3.0,-10.0,980.0,2308,2090,1366,2308,2090,1366,17.98367726265982,20.35945012260419,-5.701283502131908,
210,19.80097985267639,0.09000897407531738,11.110003311039003,10.605535764514979,102107.0,7.0,-1.0,989.0,20.6875,-0.375,-55.5,-0.0625,0.0625,-0.0625,267.875,0.1875,0.5625,0.00250244140625,0.00518798828125,-0.7197265625,-0.6942138671875,4.0,11.0,8.0,3.0,-10.0,980.0,2291,2063,1412,2291,2063,1412,2.0559397792849587,-4.3059244204864235,34.0893470552324,
211,19.95199489593506,0.0590057373046875,16.947504525471942,10.575383619559181,102107.0,10.0,0.0,984.0,21.5,-1.0625,-56.25,0.0625,0.0625,-0.0625,267.875,0.1875,0.5625,0.00250244140625,0.00518798828125,-0.7197265625,-0.6942138671875,6.0,11.0,3.0,3.0,-10.0,980.0,2310,2053,1424,2310,2053,1424,26.69183153704547,-17.023946724722364,47.12396151351558,
212,20.043004035949707,0.09100914001464844,10.987907366656188,10.57725676349467,102104.25,6.0,-3.0,987.0,20.6875,-1.5,-56.25,0.125,0.0,0.0,267.875,0.1875,0.5625,0.00250244140625,0.00518798828125,-0.7197265625,-0.6942138671875,2.0,7.0,7.0,3.0,-10.0,980.0,2282,2055,1575,2282,2055,1575,0.9466322261822278,-14.02096509245369,171.25181542908638,
213,20.13601326942444,0.09300923347473145,10.751620700881036,10.57806215907844,102104.25,6.0,-1.0,988.0,19.5625,-0.6875,-53.875,0.0,-0.0625,-0.125,267.875,0.1875,0.5625,0.00250244140625,0.00518798828125,-0.7197265625,-0.6942138671875,3.0,9.0,7.0,3.0,-10.0,980.0,2217,2051,1620,2217,2051,1620,-52.93812006314339,-16.252849956206116,195.31979136959953,
214,20.228022575378418,0.09200930595397949,10.86846585387974,10.57938309108282,102104.25,10.0,0.0,983.0,20.6875,-1.0625,-55.5,0.0,-0.125,-0.0625,267.875,0.1875,0.5625,0.00250244140625,0.00518798828125,-0.7197265625,-0.6942138671875,7.0,10.0,3.0,3.0,-10.0,980.0,2317,2087,1301,2317,2087,1301,34.82530225659266,15.126006837376396,-86.6819593347077,
215,20.319031715393066,0.09100914001464844,10.987907366656188,10.58121287527312,102104.25,6.0,-1.0,977.0,20.25,-2.1875,-56.25,0.125,-0.0625,0.0,267.875,0.1875,0.5625,0.00250244140625,0.00518798828125,-0.7197265625,-0.6942138671875,3.0,8.0,-2.0,3.0,-10.0,980.0,2376,2070,1410,2376,2070,1410,82.06181714955409,-0.421866432054534,12.21405806241016,
216,20.412040948867798,0.09300923347473145,10.751620700881036,10.58198935329791,102110.0,8.0,0.0,977.0,20.6875,-1.875,-55.5,-0.0625,-0.0625,0.0625,267.875,0.1875,0.5625,0.00250244140625,0.00518798828125,-0.7197265625,-0.6942138671875,4.0,10.0,-3.0,3.0,-10.0,980.0,2282,2047,1535,2282,2047,1535,-2.0771734039385024,-19.43050297804665,114.75792483758455,
217,20.50505042076111,0.09300947189331055,10.751593140396299,10.582758664191832,102110.0,7.0,0.0,987.0,20.25,-0.6875,-55.875,-0.0625,0.0625,0.125,267.875,0.1875,0.5625,0.00250244140625,0.00518798828125,-0.7197265625,-0.6942138671875,4.0,9.0,7.0,3.0,-10.0,980.0,2368,2097,1327,2368,2097,1327,69.27981872386904,23.459279341788694,-66.27595111149654,
218,20.59705948829651,0.09200906753540039,10.868494016801671,10.584035071796057,102110.0,6.0,-1.0,985.0,20.25,-1.875,-55.5,0.0625,0.1875,0.1875,267.875,0.1875,0.5625,0.00250244140625,0.00518798828125,-0.7197265625,-0.6942138671875,5.0,9.0,12.0,3.0,-10.0,980.0,2286,2048,1573,2286,2048,1573,-4.678398539954621,-19.353913092921733,144.69831079034591,
219,20.68906879425049,0.09200930595397949,10.86846585387974,10.58530000445744,102110.0,9.0,-1.0,984.0,20.25,-1.0625,-56.0,-0.0625,-0.125,0.0625,267.875,0.1875,0.5625,0.00250244140625,0.00518798828125,-0.7197265625,-0.6942138671875,5.0,9.0,5.0,3.0,-10.0,980.0,2282,2032,1482,2282,2032,1482,-7.665649335373075,-31.253611716746597,57.40120062135394,
220,20.785078287124634,0.09600949287414551,10.415636725743928,10.584516303519507,102114.0,9.0,-3.0,986.0,20.25,0.0,-56.6875,0.125,0.25,0.0,267.875,0.1875,0.5625,0.00250244140625,0.00518798828125,-0.7197265625,-0.6942138671875,3.0,9.0,4.0,3.0,-10.0,980.0,2273,2076,1368,2273,2076,1368,-14.29343058748989,6.44109361226332,-38.44715100507052,
221,20.876087188720703,0.09100890159606934,10.987936151986148,10.586275004609377,102114.0,8.0,1.0,981.0,20.25,-1.0625,-55.0625,0.125,-0.125,0.0625,267.875,0.1875,0.5625,0.00250244140625,0.00518798828125,-0.7197265625,-0.6942138671875,4.0,9.0,7.0,3.0,-10.0,980.0,2298,2084,1319,2298,2084,1319,7.95894066032016,12.713698073742512,-76.94420347912381,
222,20.9660964012146,0.09000921249389648,11.109973882593517,10.588523287870563,102114.0,8.0,-2.0,986.0,21.0625,-1.875,-55.5,0.0625,0.0625,0.0,267.875,0.1875,0.5625,0.00250244140625,0.00518798828125,-0.7197265625,-0.6942138671875,7.0,8.0,-1.0,3.0,-10.0,980.0,2332,2066,1473,2332,2066,1473,36.432013854105335,-3.6636804792102744,60.722570488562624,
223,21.056105375289917,0.09000897407531738,11.110003311039003,10.590752469433324,102114.0,7.0,0.0,988.0,20.0,-1.0625,-55.5,0.0,-0.0625,-0.125,267.875,0.1875,0.5625,0.00250244140625,0.00518798828125,-0.7197265625,-0.6942138671875,6.0,10.0,9.0,3.0,-10.0,980.0,2241,2038,1537,2241,2038,1537,-44.22104441311107,-27.334744220911176,110.79702887774351,
224,21.147114515304565,0.09100914001464844,10.987907366656188,10.59246167309904,102108.25,6.0,-1.0,983.0,20.6875,-0.6875,-55.5,0.125,0.0,0.0625,267.875,0.1875,0.5625,0.00250244140625,0.00518798828125,-0.7197265625,-0.6942138671875,3.0,8.0,2.0,3.0,-10.0,980.0,2339,2038,1582,2339,2038,1582,42.09872499548607,-25.22996891590102,140.33875667962096,
225,21.239123582839966,0.09200906753540039,10.868494016801671,10.593657460601976,102108.25,7.0,-2.0,982.0,20.0,-1.5,-55.5,0.0625,-0.125,-0.0625,267.875,0.1875,0.5625,0.00250244140625,0.00518798828125,-0.7197265625,-0.6942138671875,6.0,8.0,6.0,3.0,-10.0,980.0,2395,2084,1474,2395,2084,1474,85.72206937128246,15.208944498134873,39.15027617156744,
226,21.330132722854614,0.09100914001464844,10.987907366656188,10.595339604138871,102108.25,6.0,253.0,975.0,20.6875,-1.875,-55.5,0.0,-0.125,-0.125,267.875,0.1875,0.5625,0.00250244140625,0.00518798828125,-0.7197265625,-0.6942138671875,2.0,6.0,1.0,3.0,-10.0,980.0,2325,2050,1450,2325,2050,1450,19.89664932341686,-14.728485714127409,15.830052092776114,
227,21.422141790390015,0.09200906753540039,10.868494016801671,10.596512814691215,102108.25,7.0,-2.0,980.0,20.25,-0.6875,-55.875,0.0625,-0.1875,0.0,267.875,0.1875,0.5625,0.00250244140625,0.00518798828125,-0.7197265625,-0.6942138671875,3.0,8.0,0.0,3.0,-10.0,980.0,2321,2073,1524,2321,2073,1524,15.017111168338849,5.653710589616159,76.53981698936828,
228,21.515151262283325,0.09300947189331055,10.751593140396299,10.597183223140545,102108.5,7.0,-1.0,985.0,20.6875,-1.875,-55.5,-0.125,0.0,0.0,267.875,0.1875,0.5625,0.00250244140625,0.00518798828125,-0.7197265625,-0.6942138671875,4.0,9.0,-2.0,3.0,-10.0,980.0,2295,2055,1459,2295,2055,1459,-7.663895858696629,-9.683333218373555,16.834527413503444,
229,21.608160495758057,0.09300923347473145,10.751620700881036,10.597847977154533,102108.5,7.0,0.0,989.0,20.6875,-1.0625,-55.875,-0.125,0.25,0.0,267.875,0.1875,0.5625,0.00250244140625,0.00518798828125,-0.7197265625,-0.6942138671875,5.0,9.0,4.0,3.0,-10.0,980.0,2262,2037,1683,2262,2037,1683,-34.393644078515706,-23.83946285197991,200.98222265145978,
230,21.69616937637329,0.08800888061523438,11.362489705691127,10.600949688863766,102108.5,6.0,-1.0,987.0,19.5625,-1.0625,-55.875,-0.25,0.125,0.0625,267.875,0.1875,0.5625,0.00250244140625,0.00518798828125,-0.7197265625,-0.6942138671875,3.0,9.0,7.0,3.0,-10.0,980.0,2281,2059,1418,2281,2059,1418,-15.12201104504388,-2.755766650936689,-46.34501093733007,
231,21.790178775787354,0.0940093994140625,10.637234215224801,10.601106231247668,102108.5,8.0,0.0,987.0,20.6875,-1.0625,-55.875,0.0625,0.0,0.0625,267.875,0.1875,0.5625,0.00250244140625,0.00518798828125,-0.7197265625,-0.6942138671875,5.0,9.0,6.0,3.0,-10.0,980.0,2310,2039,1432,2310,2039,1432,9.795327808021481,-18.92491331026076,-31.30950661114332,
232,21.881187677383423,0.09100890159606934,10.987936151986148,10.602715146024597,102107.75,5.0,1.0,979.0,21.0625,-1.0625,-56.6875,0.125,0.0625,-0.0625,267.875,0.1875,0.5625,0.00250244140625,0.00518798828125,-0.7197265625,-0.6942138671875,2.0,9.0,4.0,3.0,-10.0,980.0,2377,2034,1453,2377,2034,1453,65.72785017490037,-21.698050403885347,-11.131181844323688,
233,21.97119688987732,0.09000921249389648,11.109973882593517,10.60479322850859,102107.75,8.0,-1.0,979.0,20.25,-1.5,-55.5,-0.0625,-0.0625,0.0625,267.875,0.1875,0.5625,0.00250244140625,0.00518798828125,-0.7197265625,-0.6942138671875,5.0,8.0,11.0,3.0,-10.0,980.0,2282,2033,1643,2282,2033,1643,-20.60265323973853,-20.88276851174588,152.2648370600324,
234,22.06420612335205,0.09300923347473145,10.751620700881036,10.605412163564855,102107.75,6.0,-1.0,990.0,20.6875,0.0,-55.5,-0.125,-0.1875,0.0,267.875,0.1875,0.5625,0.00250244140625,0.00518798828125,-0.7197265625,-0.6942138671875,2.0,8.0,10.0,3.0,-10.0,980.0,2305,2078,1396,2305,2078,1396,0.024871320981649347,17.979570392211343,-63.944629503646524,
235,22.159215450286865,0.09500932693481445,10.525282435545472,10.605068601242278,102107.75,7.0,0.0,989.0,20.6875,-0.375,-56.6875,-0.0625,0.125,0.0,267.875,0.1875,0.5625,0.00250244140625,0.00518798828125,-0.7197265625,-0.6942138671875,3.0,8.0,6.0,3.0,-10.0,980.0,2232,2030,1672,2232,2030,1672,-59.13965634093504,-22.306300409764997,164.66240928834665,
236,22.252224922180176,0.09300947189331055,10.751593140396299,10.60568104202309,102112.25,7.0,-1.0,990.0,20.25,-1.5,-55.5,-0.0625,0.1875,0.0,267.875,0.1875,0.5625,0.00250244140625,0.00518798828125,-0.7197265625,-0.6942138671875,3.0,8.0,9.0,3.0,-10.0,980.0,2307,2055,1526,2307,2055,1526,7.504547583105577,0.1081015170497821,31.11399368880879,
237,22.344234228134155,0.09200930595397949,10.86846585387974,10.606763139888127,102112.25,8.0,-1.0,987.0,21.0625,-1.5,-55.5,0.0,0.0625,0.0,267.875,0.1875,0.5625,0.00250244140625,0.00518798828125,-0.7197265625,-0.6942138671875,5.0,9.0,6.0,3.0,-10.0,980.0,2321,2071,1267,2321,2071,1267,18.64290360968881,13.48972763221679,-188.03159834915317,
238,22.436243295669556,0.09200906753540039,10.868494016801671,10.607836475277331,102112.25,9.0,-2.0,981.0,21.5,-1.0625,-56.25,0.0,-0.0625,-0.0625,267.875,0.1875,0.5625,0.00250244140625,0.00518798828125,-0.7197265625,-0.6942138671875,5.0,7.0,0.0,3.0,-10.0,980.0,2272,2063,1579,2272,2063,1579,-23.799427893649927,5.756026290186267,87.55153498337495,
239,22.526252269744873,0.09000897407531738,11.110003311039003,10.609843001758536,102112.25,8.0,0.0,978.0,20.0,-1.0625,-55.0625,0.1875,0.0,0.0625,267.875,0.1875,0.5625,0.00250244140625,0.00518798828125,-0.7197265625,-0.6942138671875,5.0,9.0,-1.0,3.0,-10.0,980.0,2362,2076,1308,2362,2076,1308,55.02545099966141,16.433925580191968,-151.02237230179583,
240,22.620261907577515,0.0940096378326416,10.637207238051761,10.609956727318126,102112.25,8.0,-3.0,978.0,21.0625,-1.5,-54.6875,-0.0625,0.0625,0.0625,267.875,0.1875,0.5625,0.00250244140625,0.00518798828125,-0.7197265625,-0.6942138671875,5.0,7.0,-1.0,3.0,-10.0,980.0,2322,2066,1479,2322,2066,1479,18.025892979488056,6.97786373721733,0.6664580688699857,
241,22.713270902633667,0.09300899505615234,10.75164826150707,10.610536942614257,102108.5,8.0,0.0,989.0,20.6875,-1.0625,-55.5,0.0625,-0.0625,-0.0625,267.875,0.1875,0.5625,0.00250244140625,0.00518798828125,-0.7197265625,-0.6942138671875,4.0,10.0,8.0,3.0,-10.0,980.0,2308,2028,1433,2308,2028,1433,5.0476223941628575,-25.01875458371809,-37.467197344691044,
242,22.805280208587646,0.09200930595397949,10.86846585387974,10.611577572674223,102108.5,9.0,0.0,992.0,20.0,-0.375,-56.25,-0.0625,-0.0625,-0.0625,267.875,0.1875,0.5625,0.00250244140625,0.00518798828125,-0.7197265625,-0.6942138671875,6.0,9.0,12.0,3.0,-10.0,980.0,2351,2069,1388,2351,2069,1388,40.64444591200814,11.219436219926546,-72.24145733284314,
243,22.895289182662964,0.09000897407531738,11.110003311039003,10.613537049534507,102108.5,7.0,-1.0,988.0,20.25,-1.0625,-56.6875,0.125,0.0,0.125,267.875,0.1875,0.5625,0.00250244140625,0.00518798828125,-0.7197265625,-0.6942138671875,4.0,8.0,8.0,3.0,-10.0,980.0,2371,2094,1315,2371,2094,1315,54.624228675783584,31.742296004742286,-129.12819372956446,
244,22.98529815673828,0.09000897407531738,11.110003311039003,10.615481180019842,102108.5,7.0,-2.0,984.0,20.6875,-1.5,-55.5,-0.125,-0.0625,-0.0625,267.875,0.1875,0.5625,0.00250244140625,0.00518798828125,-0.7197265625,-0.6942138671875,4.0,8.0,3.0,3.0,-10.0,980.0,2339,2070,1355,2339,2070,1355,23.043114909348148,8.766853093577051,-84.96651261438785,
245,23.078307628631592,0.09300947189331055,10.751593140396299,10.616029734175402,102107.0,8.0,0.0,982.0,20.6875,-1.0625,-55.0625,0.125,-0.25,0.0,267.875,0.1875,0.5625,0.00250244140625,0.00518798828125,-0.7197265625,-0.6942138671875,5.0,9.0,1.0,3.0,-10.0,980.0,2244,2035,1682,2244,2035,1682,-57.37910876067058,-20.883738107996408,192.2902725389584,
246,23.173316955566406,0.09500932693481445,10.525282435545472,10.615657675234488,102107.0,8.0,-1.0,990.0,20.6875,-0.6875,-57.5625,0.1875,-0.125,0.0625,267.875,0.1875,0.5625,0.00250244140625,0.00518798828125,-0.7197265625,-0.6942138671875,4.0,10.0,-2.0,3.0,-10.0,980.0,2334,2072,1393,2334,2072,1393,19.979289892231172,10.710839385188368,-56.735188484734834,
247,23.265326261520386,0.09200930595397949,10.86846585387974,10.616657476603923,102107.0,8.0,-1.0,993.0,21.0625,-1.5,-56.25,-0.0625,0.0625,0.0625,267.875,0.1875,0.5625,0.00250244140625,0.00518798828125,-0.7197265625,-0.6942138671875,3.0,8.0,8.0,3.0,-10.0,980.0,2296,2033,1481,2296,2033,1481,-13.360246517922747,-22.751898206671996,21.27814565447887,
248,23.358335494995117,0.09300923347473145,10.751620700881036,10.61719487902457,102107.0,7.0,-1.0,985.0,21.5,-1.0625,-55.5,-0.125,0.0625,-0.125,267.875,0.1875,0.5625,0.00250244140625,0.00518798828125,-0.7197265625,-0.6942138671875,3.0,10.0,10.0,3.0,-10.0,980.0,2328,2080,1518,2328,2080,1518,14.160485870928175,17.91011327173021,50.27109581589407,
249,23.450344562530518,0.09200906753540039,10.868494016801671,10.61818086877315,102111.75,7.0,0.0,983.0,21.0625,-1.0625,-55.5,-0.0625,0.1875,-0.0625,267.875,0.1875,0.5625,0.00250244140625,0.00518798828125,-0.7197265625,-0.6942138671875,2.0,7.0,7.0,3.0,-10.0,980.0,2327,2067,1486,2327,2067,1486,12.233254419572978,5.651672038988513,19.620252180670914,
250,23.53835368156433,0.08800911903381348,11.36245892446436,10.62096369958977,102111.75,7.0,1.0,980.0,21.0625,-1.5,-55.5,0.125,-0.125,0.0625,267.875,0.1875,0.5625,0.00250244140625,0.00518798828125,-0.7197265625,-0.6942138671875,2.0,8.0,4.0,3.0,-10.0,980.0,2350,2036,1427,2350,2036,1427,31.414208584492236,-21.905696160710026,-33.51015813108233,
251,23.631362676620483,0.09300899505615234,10.75164826150707,10.621478051637073,102111.75,6.0,-1.0,980.0,21.75,-1.5,-56.6875,0.0625,0.125,-0.0625,267.875,0.1875,0.5625,0.00250244140625,0.00518798828125,-0.7197265625,-0.6942138671875,2.0,8.0,0.0,3.0,-10.0,980.0,2294,2052,1387,2294,2052,1387,-17.365792780132146,-6.972926898158645,-64.04495260043076,
252,23.72137188911438,0.09000921249389648,11.109973882593517,10.623331617495595,102111.75,6.0,-3.0,990.0,20.25,-1.5,-56.25,0.0,-0.125,-0.125,267.875,0.1875,0.5625,0.00250244140625,0.00518798828125,-0.7197265625,-0.6942138671875,2.0,9.0,-1.0,3.0,-10.0,980.0,2298,2084,1319,2298,2084,1319,-12.60675478022317,20.938964119709993,-117.28531449945726,
253,23.81438136100769,0.09300947189331055,10.751593140396299,10.623832555828965,102112.0,7.0,0.0,990.0,21.5,-1.5,-55.0625,0.125,0.0,0.0625,267.875,0.1875,0.5625,0.00250244140625,0.00518798828125,-0.7197265625,-0.6942138671875,5.0,10.0,9.0,3.0,-10.0,980.0,2286,2040,1609,2286,2040,1609,-21.570506723872164,-17.099733677170335,131.8287295420503,
254,23.907390356063843,0.09300899505615234,10.75164826150707,10.624329808358851,102112.0,6.0,0.0,987.0,20.6875,0.0,-54.6875,-0.125,0.0625,0.0,267.875,0.1875,0.5625,0.00250244140625,0.00518798828125,-0.7197265625,-0.6942138671875,3.0,9.0,6.0,3.0,-10.0,980.0,2274,2039,1362,2274,2039,1362,-29.844100699766543,-16.610931100164265,-82.80768091829054,
255,24.00540018081665,0.09800982475280762,10.203058749692884,10.622609832756599,102112.0,5.0,0.0,985.0,21.0625,-1.875,-55.5,0.125,0.25,-0.0625,267.875,0.1875,0.5625,0.00250244140625,0.00518798828125,-0.7197265625,-0.6942138671875,2.0,10.0,4.0,3.0,-10.0,980.0,2312,2057,1529,2312,2057,1529,2.308044955716859,-1.1904499783772806,54.76964297471862,
256,24.099409580230713,0.0940093994140625,10.637234215224801,10.622666881017805,102112.0,6.0,-1.0,988.0,20.25,-0.6875,-56.6875,0.1875,-0.25,-0.125,267.875,0.1875,0.5625,0.00250244140625,0.00518798828125,-0.7197265625,-0.6942138671875,3.0,9.0,7.0,3.0,-10.0,980.0,2243,2016,1696,2243,2016,1696,-54.385299891362706,-34.68053374750693,187.336575239241,
257,24.19741940498352,0.09800982475280762,10.203058749692884,10.620967289886714,102111.0,8.0,-1.0,988.0,20.25,-1.0625,-55.0625,-0.1875,0.0625,0.0,267.875,0.1875,0.5625,0.00250244140625,0.00518798828125,-0.7197265625,-0.6942138671875,5.0,9.0,8.0,3.0,-10.0,980.0,2254,2017,1702,2254,2017,1702,-41.5556410387379,-31.224497125222545,177.62547208817756,
258,24.291428804397583,0.0940093994140625,10.637234215224801,10.621030243939094,102111.0,7.0,-1.0,982.0,20.25,0.0,-54.6875,-0.125,0.0,0.0625,267.875,0.1875,0.5625,0.00250244140625,0.00518798828125,-0.7197265625,-0.6942138671875,3.0,8.0,2.0,3.0,-10.0,980.0,2291,2031,1439,2291,2031,1439,-8.05037639957963,-17.35327236256807,-51.46631935512954,
259,24.382437705993652,0.09100890159606934,10.987936151986148,10.622399742103433,102111.0,7.0,-2.0,977.0,20.25,-0.6875,-55.5,0.0,-0.0625,0.0,267.875,0.1875,0.5625,0.00250244140625,0.00518798828125,-0.7197265625,-0.6942138671875,3.0,8.0,0.0,3.0,-10.0,980.0,2268,2047,1510,2268,2047,1510,-26.890132341979466,-2.4799330514033944,12.56763417812369,
260,24.476447343826294,0.0940096378326416,10.637207238051761,10.622456615035675,102111.0,7.0,-1.0,978.0,21.0625,-0.375,-55.5,0.125,0.0,-0.0625,267.875,0.1875,0.5625,0.00250244140625,0.00518798828125,-0.7197265625,-0.6942138671875,3.0,8.0,-1.0,3.0,-10.0,980.0,2320,2083,1454,2320,2083,1454,17.771785629512205,27.197360257434152,-34.26771126407103,
261,24.569456577301025,0.09300923347473145,10.751620700881036,10.622945573860594,102111.0,8.0,0.0,985.0,20.25,-1.0625,-56.0,-0.125,0.0,0.0,267.875,0.1875,0.5625,0.00250244140625,0.00518798828125,-0.7197265625,-0.6942138671875,2.0,7.0,7.0,3.0,-10.0,980.0,2292,2036,1424,2292,2036,1424,-6.7771360950597455,-13.806951798876742,-56.46534131577276,
262,24.668466567993164,0.09900999069213867,10.099990849503225,10.620846629353917,102111.0,9.0,0.0,984.0,20.6875,-0.375,-55.0625,-0.25,0.1875,-0.0625,267.875,0.1875,0.5625,0.00250244140625,0.00518798828125,-0.7197265625,-0.6942138671875,5.0,9.0,5.0,3.0,-10.0,980.0,2207,2044,1461,2207,2044,1461,-72.35973672573876,-6.522222147069247,-23.34263610422358,
263,24.762475967407227,0.0940093994140625,10.637234215224801,10.620908843936482,102111.0,7.0,-2.0,989.0,19.5625,-0.375,-55.875,-0.125,-0.0625,0.0625,267.875,0.1875,0.5625,0.00250244140625,0.00518798828125,-0.7197265625,-0.6942138671875,3.0,8.0,9.0,3.0,-10.0,980.0,2267,2065,1456,2267,2065,1456,-17.6440149235183,11.180396684273585,-25.640588297059914,
264,24.85748553276062,0.09500956535339355,10.52525602322716,10.620543242479792,102111.0,9.0,-2.0,987.0,21.0625,-0.375,-56.75,0.1875,-0.0625,0.0625,267.875,0.1875,0.5625,0.00250244140625,0.00518798828125,-0.7197265625,-0.6942138671875,5.0,8.0,6.0,3.0,-10.0,980.0,2219,2030,1655,2219,2030,1655,-55.18677203625498,-18.046058843012673,137.61223504572345,
265,24.951494932174683,0.0940093994140625,10.637234215224801,10.620606128824985,102111.0,5.0,0.0,987.0,20.6875,-1.0625,-55.5,0.25,-0.3125,-0.0625,267.875,0.1875,0.5625,0.00250244140625,0.00518798828125,-0.7197265625,-0.6942138671875,2.0,10.0,6.0,3.0,-10.0,980.0,2193,2003,1675,2193,2003,1675,-72.2331334883434,-38.77132224555306,143.39743363864895,
266,25.04150390625,0.09000897407531738,11.110003311039003,10.622365214000196,102111.0,6.0,0.0,986.0,20.0,-1.0625,-55.5,0.1875,-0.0625,0.0625,267.875,0.1875,0.5625,0.00250244140625,0.00518798828125,-0.7197265625,-0.6942138671875,3.0,11.0,5.0,3.0,-10.0,980.0,2157,2029,1682,2157,2029,1682,-97.46811138794108,-13.543703803945387,138.344123033123,
267,25.131512880325317,0.09000897407531738,11.110003311039003,10.624111698783802,102111.0,5.0,-1.0,979.0,20.6875,-0.6875,-55.875,0.125,-0.25,-0.0625,267.875,0.1875,0.5625,0.00250244140625,0.00518798828125,-0.7197265625,-0.6942138671875,2.0,9.0,0.0,3.0,-10.0,980.0,2262,2036,1477,2262,2036,1477,-0.1386900413192791,-6.512546826391569,-47.67977670517813,
268,25.223521947860718,0.09200906753540039,10.868494016801671,10.62500314404864,102111.0,6.0,0.0,992.0,21.0625,-1.0625,-55.875,0.25,-0.0625,-0.0625,267.875,0.1875,0.5625,0.00250244140625,0.00518798828125,-0.7197265625,-0.6942138671875,2.0,10.0,11.0,3.0,-10.0,980.0,2260,2046,1410,2260,2046,1410,-1.801758986725152,2.357659672177869,-100.07899453155923,
269,25.31653141975403,0.09300947189331055,10.751593140396299,10.625468218371502,102114.5,9.0,0.0,989.0,20.25,-1.5,-55.5,0.0,-0.0625,0.0,267.875,0.1875,0.5625,0.00250244140625,0.00518798828125,-0.7197265625,-0.6942138671875,5.0,10.0,9.0,3.0,-10.0,980.0,2287,2028,1609,2287,2028,1609,20.68953859413659,-12.725588215169097,72.3737497376633,
270,25.407540321350098,0.09100890159606934,10.987936151986148,10.626766565558395,102114.5,8.0,-2.0,992.0,21.0625,-1.0625,-55.875,-0.375,0.25,0.125,267.875,0.1875,0.5625,0.00250244140625,0.00518798828125,-0.7197265625,-0.6942138671875,4.0,8.0,11.0,3.0,-10.0,980.0,2333,2053,1409,2333,2053,1409,58.015713972723006,9.406059169972252,-102.41324573272341,
271,25.497549533843994,0.09000921249389648,11.109973882593517,10.628472341637774,102114.5,6.0,-2.0,983.0,21.0625,-1.5,-55.0625,-0.3125,0.375,0.0625,267.875,0.1875,0.5625,0.00250244140625,0.00518798828125,-0.7197265625,-0.6942138671875,3.0,8.0,3.0,3.0,-10.0,980.0,2329,2082,1320,2329,2082,1320,50.12663204098453,33.49036429371571,-170.6640768287171,
272,25.588558435440063,0.09100890159606934,10.987936151986148,10.629750819541322,102114.5,5.0,0.0,979.0,20.6875,-1.5,-55.875,-0.25,0.1875,0.125,267.875,0.1875,0.5625,0.00250244140625,0.00518798828125,-0.7197265625,-0.6942138671875,2.0,9.0,0.0,3.0,-10.0,980.0,2206,2023,1604,2206,2023,1604,-57.79986192163207,-19.00658769537347,82.76124485872714,
273,25.67756748199463,0.08900904655456543,11.234813074724574,10.631848215039465,102108.5,8.0,0.0,987.0,20.0,-1.0625,-55.5,0.0,-0.0625,0.0,267.875,0.1875,0.5625,0.00250244140625,0.00518798828125,-0.7197265625,-0.6942138671875,4.0,9.0,6.0,3.0,-10.0,980.0,2234,2008,1688,2234,2008,1688,-29.12701556456022,-30.519289544136598,149.0553999719237,
274,25.77157688140869,0.0940093994140625,10.637234215224801,10.631867862057767,102108.5,6.0,-1.0,986.0,21.0625,-0.6875,-55.875,-0.1875,0.0625,0.0625,267.875,0.1875,0.5625,0.00250244140625,0.00518798828125,-0.7197265625,-0.6942138671875,3.0,9.0,5.0,3.0,-10.0,980.0,2168,2019,1743,2168,2019,1743,-80.94265964786152,-19.159566868942676,182.6268210755626,
275,25.865586042404175,0.0940091609954834,10.637261192534675,10.631887464260952,102108.5,8.0,0.0,985.0,20.6875,-1.875,-55.5,0.0,0.1875,0.0625,267.875,0.1875,0.5625,0.00250244140625,0.00518798828125,-0.7197265625,-0.6942138671875,3.0,7.0,9.0,3.0,-10.0,980.0,2248,2055,1517,2248,2055,1517,-9.18454590896259,11.80220780567203,-16.545063419744167,
276,25.963595867156982,0.09800982475280762,10.203058749692884,10.630268681278086,102108.5,8.0,-2.0,987.0,20.6875,-1.5,-56.6875,-0.4375,0.125,-0.0625,267.875,0.1875,0.5625,0.00250244140625,0.00518798828125,-0.7197265625,-0.6942138671875,3.0,7.0,3.0,3.0,-10.0,980.0,2181,2015,1755,2181,2015,1755,-61.11491596363806,-20.5319831444188,171.71016111044793,
277,26.066606283187866,0.10301041603088379,9.707756152544688,10.62662308206405,102111.75,7.0,-2.0,987.0,21.0625,-1.5,-55.0625,0.0625,0.125,-0.0625,267.875,0.1875,0.5625,0.00250244140625,0.00518798828125,-0.7197265625,-0.6942138671875,5.0,8.0,7.0,3.0,-10.0,980.0,2278,2025,1462,2278,2025,1462,16.098163268918334,-11.476048204839145,-60.528207852617214,
278,26.159615755081177,0.09300947189331055,10.751593140396299,10.627067408128958,102111.75,6.0,-2.0,985.0,21.0625,-1.0625,-55.5,0.625,-0.3125,-0.0625,267.875,0.1875,0.5625,0.00238037109375,0.005126953125,-0.7197265625,-0.6942138671875,4.0,11.0,10.0,3.0,-10.0,980.0,2253,2027,1540,2253,2027,1540,-5.838212098051253,-8.936647149445502,8.706532553254483,
279,26.25462532043457,0.09500956535339355,10.52525602322716,10.62669897569812,102111.75,9.0,0.0,990.0,21.0625,-1.0625,-55.875,0.5,-0.5,0.0,267.875,0.1875,0.5625,0.00238037109375,0.005126953125,-0.7197265625,-0.6942138671875,5.0,10.0,9.0,3.0,-10.0,980.0,2221,2050,1503,2221,2050,1503,-31.322900607733025,10.391703098197102,-21.95032486352029,
280,26.349634647369385,0.09500932693481445,10.525282435545472,10.626333296350042,102111.75,9.0,1.0,986.0,21.75,-1.5,-55.0625,0.0625,-0.0625,-0.1875,267.875,0.1875,0.5625,0.00238037109375,0.00506591796875,-0.7197265625,-0.6942138671875,6.0,10.0,6.0,3.0,-10.0,980.0,2251,2044,1490,2251,2044,1490,-4.597634834827538,4.728861474413917,-30.795957567010248,
281,26.443644046783447,0.0940093994140625,10.637234215224801,10.626372050042033,102113.75,9.0,-2.0,979.0,20.25,-0.375,-56.25,0.0,0.125,0.0625,267.875,0.1875,0.5625,0.0023193359375,0.0050048828125,-0.7197265625,-0.6942138671875,6.0,10.0,3.0,3.0,-10.0,980.0,2299,2030,1368,2299,2030,1368,35.07160070692504,-7.102199343128291,-128.35084705217224,
282,26.533653020858765,0.09000897407531738,11.110003311039003,10.628012651643285,102113.75,6.0,-1.0,991.0,20.25,-0.6875,-56.6875,-0.25,0.25,0.0625,267.875,0.1875,0.5625,0.0023193359375,0.0050048828125,-0.7197265625,-0.6942138671875,5.0,6.0,-1.0,3.0,-10.0,980.0,2226,2023,1649,2226,2023,1649,-30.078241158858425,-12.543621778357437,121.91930981179596,
283,26.625662088394165,0.09200906753540039,10.868494016801671,10.628843671960992,102113.75,6.0,-4.0,987.0,20.6875,-1.5,-55.5,-0.75,0.4375,0.0625,267.875,0.1875,0.5625,0.0023193359375,0.0050048828125,-0.7197265625,-0.6942138671875,2.0,7.0,6.0,3.0,-10.0,980.0,2331,2083,1420,2331,2083,1420,60.109557536215185,38.6346794561998,-79.11263204197617,
284,26.71567130088806,0.09000921249389648,11.109973882593517,10.6304646737647,102113.75,7.0,-3.0,988.0,20.25,-1.875,-55.875,-0.5,0.375,-0.0625,267.875,0.1875,0.5625,0.0023193359375,0.0050048828125,-0.7197265625,-0.6942138671875,3.0,8.0,7.0,3.0,-10.0,980.0,2323,2026,1377,2323,2026,1377,48.63737769424901,-13.10186623263052,-109.80608290001115,
285,26.808680534362793,0.09300923347473145,10.751620700881036,10.630885008857229,102113.0,9.0,-2.0,987.0,20.25,-0.6875,-55.0625,0.3125,15.875,-0.0625,267.875,0.1875,0.5625,0.0023193359375,0.0050048828125,-0.7197265625,-0.6942138671875,5.0,7.0,7.0,3.0,-10.0,980.0,2251,2021,1689,2251,2021,1689,-14.714685553892622,-16.23239650255717,156.94592120125571,
286,26.89768958091736,0.08900904655456543,11.234813074724574,10.632883509924344,102113.0,8.0,-1.0,987.0,20.0,0.375,-55.5,0.25,-0.0625,-0.0625,267.875,0.1875,0.5625,0.0023193359375,0.0050048828125,-0.7197265625,-0.6942138671875,4.0,8.0,6.0,3.0,-10.0,980.0,2319,2051,1437,2319,2051,1437,45.24382649301498,10.9699162307535,-73.13922763319658,
287,26.994699239730835,0.09700965881347656,10.30825190224337,10.631716895648648,102113.0,9.0,-1.0,978.0,20.25,-1.5,-55.0625,0.5,-0.375,0.0625,267.875,0.1875,0.5625,0.0023193359375,0.0050048828125,-0.7197265625,-0.6942138671875,6.0,8.0,9.0,3.0,-10.0,980.0,2270,2075,1345,2270,2075,1345,2.867017425888598,29.174882196331225,-140.53116358093246,
288,27.086708307266235,0.09200906753540039,10.868494016801671,10.632521188362396,102113.0,6.0,0.0,987.0,20.25,-1.0625,-56.0,0.3125,-0.4375,-0.1875,267.875,0.1875,0.5625,0.0023193359375,0.0050048828125,-0.7197265625,-0.6942138671875,3.0,9.0,1.0,3.0,-10.0,980.0,2303,2058,1431,2303,2058,1431,30.26310038078822,12.701557599220337,-57.739096605940006,
289,27.177717447280884,0.09100914001464844,10.987907366656188,10.633711258519037,102113.0,7.0,-1.0,988.0,20.6875,-1.0625,-55.0625,-0.5,0.3125,0.0625,267.875,0.1875,0.5625,0.00225830078125,0.00494384765625,-0.7197265625,-0.6942138671875,3.0,8.0,0.0,3.0,-10.0,980.0,2292,2055,1365,2292,2055,1365,18.626084111909734,9.185331062382792,-109.13373140462937,
290,27.27572727203369,0.09800982475280762,10.203058749692884,10.632163795586209,102108.5,8.0,0.0,988.0,20.25,-1.875,-55.5,0.0625,0.0625,0.0625,267.875,0.1875,0.5625,0.00225830078125,0.00494384765625,-0.7197265625,-0.6942138671875,3.0,10.0,8.0,3.0,-10.0,980.0,2296,2032,1619,2296,2032,1619,20.334417730198094,-9.591556475126778,98.8209889400205,
291,27.368736505508423,0.09300923347473145,10.751620700881036,10.632569754962248,102108.5,8.0,0.0,988.0,20.6875,-1.5,-55.5,0.5625,-0.5,-0.0625,267.875,0.1875,0.5625,0.00225830078125,0.00494384765625,-0.7197265625,-0.6942138671875,4.0,9.0,8.0,3.0,-10.0,980.0,2257,2047,1468,2257,2047,1468,-13.518449399772908,3.5651152829755812,-33.79732109750488,
292,27.45874547958374,0.09000897407531738,11.110003311039003,10.634134768360385,102108.5,6.0,0.0,987.0,21.0625,-1.0625,-56.6875,0.375,-0.3125,-0.0625,267.875,0.1875,0.5625,0.002197265625,0.00494384765625,-0.7197265625,-0.6942138671875,2.0,9.0,7.0,3.0,-9.0,980.0,2250,2037,1690,2250,2037,1690,-18.46582058064042,-5.264101143313573,158.71946922590374,
293,27.55875563621521,0.10001015663146973,9.998984439999713,10.63182982089968,102108.5,8.0,0.0,986.0,21.0625,-1.0625,-56.25,-0.4375,0.5,0.0,267.875,0.1875,0.5625,0.0023193359375,0.0050048828125,-0.7197265625,-0.6942138671875,4.0,10.0,5.0,3.0,-10.0,980.0,2273,2026,1580,2273,2026,1580,0.6642490473083846,-13.327905175958186,61.80667188871156,
294,27.64976453781128,0.09100890159606934,10.987936151986148,10.63300194104556,102109.75,7.0,-2.0,982.0,20.6875,-1.0625,-55.0625,0.0,0.125,0.0,267.875,0.1875,0.5625,0.0023193359375,0.0050048828125,-0.7197265625,-0.6942138671875,3.0,7.0,2.0,3.0,-10.0,980.0,2270,2074,1507,2270,2074,1507,-1.9251113804431612,28.3097555403314,-4.715630957033355,
295,27.74277400970459,0.09300947189331055,10.751593140396299,10.63339952582994,102109.75,5.0,-3.0,985.0,20.25,-0.6875,-55.5,0.625,-0.5625,0.0,267.875,0.1875,0.5625,0.00225830078125,0.00494384765625,-0.7197265625,-0.6942138671875,2.0,6.0,4.0,3.0,-10.0,980.0,2321,2090,1286,2321,2090,1286,40.444628458187225,39.375867112694124,-187.3123878434656,
296,27.838783502578735,0.09600949287414551,10.415636725743928,10.632648512553763,102109.75,6.0,0.0,979.0,21.0625,-1.5,-55.5,0.0625,0.0,0.0,267.875,0.1875,0.5625,0.00225830078125,0.00494384765625,-0.7197265625,-0.6942138671875,2.0,10.0,-1.0,3.0,-10.0,980.0,2271,2063,1320,2271,2063,1320,-2.7698093272073194,14.68981659219505,-145.62119703152112,
297,27.929792642593384,0.09100914001464844,10.987907366656188,10.633806122393842,102109.75,7.0,-3.0,983.0,20.25,-0.6875,-55.0625,-0.3125,0.1875,0.0,267.875,0.1875,0.5625,0.00225830078125,0.00494384765625,-0.7197265625,-0.6942138671875,3.0,6.0,3.0,3.0,-10.0,980.0,2304,2018,1461,2304,2018,1461,25.363738609661016,-24.51439831086766,-15.112654580307776,
298,28.02680230140686,0.09700965881347656,10.30825190224337,10.632679275903028,102109.0,8.0,0.0,987.0,20.0,-1.0625,-54.6875,-0.375,0.375,0.125,267.875,0.1875,0.5625,0.00225830078125,0.00494384765625,-0.7197265625,-0.6942138671875,4.0,9.0,6.0,3.0,-10.0,980.0,2237,2043,1567,2237,2043,1567,-29.769540826956415,-2.7834047291123625,70.1869718484863,
299,28.114811182022095,0.08800888061523438,11.362489705691127,10.634963829712445,102109.0,8.0,-1.0,989.0,20.25,0.0,-55.0625,0.3125,-0.1875,0.0,267.875,0.1875,0.5625,0.00225830078125,0.00494384765625,-0.7197265625,-0.6942138671875,5.0,8.0,8.0,3.0,-10.0,980.0,2276,2082,1485,2276,2082,1485,6.644270402909687,31.552474021219748,-6.9601849855809235,
300,28.205820322036743,0.09100914001464844,10.987907366656188,10.63610264033395,102109.0,9.0,0.0,988.0,20.6875,0.0,-56.25,0.5625,-0.25,0.0,267.875,0.1875,0.5625,0.00225830078125,0.00494384765625,-0.7197265625,-0.6942138671875,5.0,10.0,7.0,3.0,-9.0,980.0,2202,2055,1481,2202,2055,1481,-56.476434593321315,6.279074106307615,-9.808526210621299,
301,28.29682946205139,0.09100914001464844,10.987907366656188,10.637234125599415,102109.0,9.0,0.0,984.0,20.0,-1.5,-55.5,0.1875,-0.0625,-0.0625,267.875,0.1875,0.5625,0.00225830078125,0.00494384765625,-0.7197265625,-0.6942138671875,5.0,9.0,3.0,3.0,-9.0,980.0,2240,2033,1481,2240,2033,1481,-19.97713217479957,-12.817929678993654,-9.05326969240346,
302,28.388838529586792,0.09200906753540039,10.868494016801671,10.637983645764733,102112.0,5.0,0.0,981.0,21.0625,-1.0625,-56.6875,-0.0625,0.125,-0.0625,267.875,0.1875,0.5625,0.00225830078125,0.00494384765625,-0.7197265625,-0.6942138671875,2.0,10.0,0.0,3.0,-9.0,980.0,2290,2030,1452,2290,2030,1452,23.404808967346426,-14.341571211592328,-32.62551506560652,
303,28.481847763061523,0.09300923347473145,10.751620700881036,10.638354734588695,102112.0,8.0,0.0,987.0,21.0625,-0.6875,-56.25,-0.3125,0.1875,0.0625,267.875,0.1875,0.5625,0.00225830078125,0.00494384765625,-0.7197265625,-0.6942138671875,5.0,10.0,7.0,3.0,-9.0,980.0,2281,2026,1725,2281,2026,1725,14.151765531150195,-16.54876940417108,195.89646834766543,
304,28.57085657119751,0.08900880813598633,11.234843168242573,10.640213017150652,102112.0,6.0,-3.0,991.0,20.25,-0.6875,-55.875,-0.0625,0.1875,0.125,267.875,0.1875,0.5625,0.00225830078125,0.00494384765625,-0.7197265625,-0.6942138671875,2.0,6.0,10.0,3.0,-9.0,980.0,2266,2053,1414,2266,2053,1414,0.08583572593145838,8.082724786726404,-88.22834906500972,
305,28.66386604309082,0.09300947189331055,10.751593140396299,10.640574427102363,102112.0,6.0,-3.0,980.0,20.25,-1.0625,-55.5,0.0625,-0.125,0.0,267.875,0.1875,0.5625,0.00225830078125,0.00494384765625,-0.7197265625,-0.6942138671875,4.0,6.0,7.0,3.0,-9.0,980.0,2277,2051,1614,2277,2051,1614,9.185825764950401,5.804609634527441,84.13976817509904,
306,28.75487518310547,0.09100914001464844,10.987907366656188,10.641673735373613,102110.0,8.0,-1.0,982.0,20.6875,-1.0625,-56.6875,0.125,-0.125,0.0,267.875,0.1875,0.5625,0.00225830078125,0.00494384765625,-0.7197265625,-0.6942138671875,4.0,8.0,7.0,3.0,-9.0,980.0,2266,2045,1510,2266,2045,1510,-0.8282403585085714,0.2812414892736692,-10.330156166566326,
307,28.848884344100952,0.0940091609954834,10.637261192534675,10.64165935632709,102110.0,8.0,-2.0,976.0,20.25,-1.0625,-55.5,0.25,-0.0625,0.0,267.875,0.1875,0.5625,0.00225830078125,0.00494384765625,-0.7197265625,-0.6942138671875,6.0,9.0,3.0,3.0,-9.0,980.0,2267,2052,1534,2267,2052,1534,0.0546032609217586,5.993069677375786,10.12292454206336,
308,28.93889355659485,0.09000921249389648,11.109973882593517,10.643115964252553,102110.0,7.0,-2.0,985.0,21.0625,-0.6875,-55.875,0.125,0.0625,0.0625,267.875,0.1875,0.5625,0.00225830078125,0.00494384765625,-0.7197265625,-0.6942138671875,4.0,9.0,-1.0,3.0,-9.0,980.0,2244,2048,1527,2244,2048,1527,-19.625364936242338,2.109731356379047,3.3551834296065772,
309,29.028902530670166,0.09000897407531738,11.110003311039003,10.644563626665853,102110.0,8.0,1.0,990.0,20.0,-1.5,-55.0625,-0.5625,0.1875,0.0625,267.875,0.1875,0.5625,0.00225830078125,0.00494384765625,-0.7197265625,-0.6942138671875,4.0,7.0,5.0,3.0,-9.0,980.0,2239,2017,1689,2239,2017,1689,-22.391563110901696,-24.572295861512245,141.68301560742742,
310,29.118911504745483,0.09000897407531738,11.110003311039003,10.646002339389629,102113.5,8.0,-1.0,989.0,20.25,0.375,-55.0625,-0.375,0.1875,0.0,267.875,0.1875,0.5625,0.00225830078125,0.00494384765625,-0.7197265625,-0.6942138671875,2.0,9.0,5.0,3.0,-9.0,980.0,2198,2051,1677,2198,2051,1677,-55.7416932043124,6.405759588124308,120.50778034625547,
311,29.214921236038208,0.09600973129272461,10.41561086085216,10.64524519807243,102113.5,4.0,-2.0,987.0,21.0625,-1.875,-54.6875,-0.1875,0.125,0.1875,267.875,0.1875,0.5625,0.00225830078125,0.00494384765625,-0.7197265625,-0.6942138671875,2.0,8.0,8.0,3.0,-10.0,980.0,2253,2080,1459,2253,2080,1459,-7.339470831871445,29.17057515212161,-63.60776265067058,
312,29.30693030357361,0.09200906753540039,10.868494016801671,10.645946087432963,102113.5,7.0,0.0,988.0,21.0625,-0.375,-55.875,0.5625,-0.8125,0.125,267.875,0.1875,0.5625,0.0023193359375,0.00506591796875,-0.7197265625,-0.6942138671875,4.0,9.0,8.0,3.0,-10.0,980.0,2199,2036,1726,2199,2036,1726,-51.96552969967869,-9.898016863515817,164.7354035648566,
313,29.404940128326416,0.09800982475280762,10.203058749692884,10.644469896351882,102113.5,10.0,3.0,986.0,20.6875,-1.875,-55.5,0.75,-0.5625,0.125,267.875,0.1875,0.5625,0.00244140625,0.00506591796875,-0.7197265625,-0.6942138671875,7.0,14.0,5.0,3.0,-10.0,980.0,2208,2053,1475,2208,2053,1475,-40.89346419926627,4.2199343383228864,-45.14373896495172,
314,29.495949268341064,0.09100914001464844,10.987907366656188,10.645529565547028,102113.75,9.0,-1.0,980.0,20.25,0.375,-55.5,-0.3125,0.3125,0.0625,267.875,0.1875,0.5625,0.0025634765625,0.005126953125,-0.7197265625,-0.6942138671875,3.0,8.0,4.0,3.0,-10.0,980.0,2281,2068,1438,2281,2068,1438,24.01835985205166,16.58603240275992,-72.97221915225393,
315,29.59195876121521,0.09600949287414551,10.415636725743928,10.64478369079291,102113.75,8.0,-1.0,991.0,20.6875,-1.5,-56.25,-0.9375,0.6875,0.125,267.875,0.1875,0.625,0.00262451171875,0.00518798828125,-0.7197265625,-0.6942138671875,3.0,6.0,-3.0,3.0,-10.0,980.0,2265,2039,1572,2265,2039,1572,9.336881697327165,-7.949208900838785,40.115181458695474,
316,29.69196891784668,0.10001015663146973,9.998984439999713,10.642608473500886,102113.75,6.0,-1.0,989.0,20.6875,-0.6875,-55.0625,-0.0625,0.0625,0.0625,267.875,0.1875,0.625,0.002685546875,0.0052490234375,-0.7197265625,-0.6942138671875,5.0,11.0,-2.0,3.0,-11.0,980.0,2198,2016,1690,2198,2016,1690,-42.96681891932555,-25.04532125871369,127.87708510821332,
317,29.78497815132141,0.09300923347473145,10.751620700881036,10.642948884820193,102113.75,9.0,0.0,988.0,21.75,-0.375,-55.5,0.625,-0.5625,0.0625,267.875,0.1875,0.625,0.002685546875,0.0052490234375,-0.7197265625,-0.6942138671875,5.0,11.0,9.0,3.0,-11.0,980.0,2215,2039,1663,2215,2039,1663,-25.584502365084205,-4.075711260532426,95.67793011774924,
318,29.87598705291748,0.09100890159606934,10.987936151986148,10.64399979276823,102108.5,7.0,0.0,990.0,20.25,-0.375,-57.1875,-0.375,-0.0625,-0.0625,267.875,0.1875,0.625,0.00274658203125,0.00531005859375,-0.7197265625,-0.6942138671875,5.0,11.0,9.0,3.0,-11.0,980.0,2221,2038,1626,2221,2038,1626,-18.538069180755123,-4.607952577174363,57.00609940167402,
319,29.96899652481079,0.09300947189331055,10.751593140396299,10.644333711204032,102108.5,7.0,-2.0,986.0,21.0625,-0.6875,-55.5,-0.625,0.5,0.125,267.875,0.1875,0.625,0.00274658203125,0.00537109375,-0.7197265625,-0.6942138671875,3.0,8.0,5.0,3.0,-11.0,980.0,2278,2020,1459,2278,2020,1459,30.078104439362374,-19.154848321321204,-85.63810644461088,
320,30.064006090164185,0.09500956535339355,10.52525602322716,10.643957396771949,102108.5,6.0,-1.0,983.0,21.0625,-1.5,-55.875,0.5,-0.3125,0.125,267.875,0.1875,0.625,0.0028076171875,0.0052490234375,-0.7197265625,-0.6942138671875,3.0,9.0,2.0,3.0,-11.0,980.0,2231,2015,1674,2231,2015,1674,-10.32881115052762,-21.73214856952193,95.20164121614981,
321,30.162015914916992,0.09800982475280762,10.203058749692884,10.64252472067842,102108.5,12.0,0.0,986.0,21.0625,-1.875,-56.25,0.5,-0.1875,0.0625,267.875,0.1875,0.625,0.0028076171875,0.00531005859375,-0.7197265625,-0.6942138671875,9.0,10.0,5.0,3.0,-11.0,980.0,2230,2056,1467,2230,2056,1467,-10.319128215663346,12.152283343111694,-74.7554385688486,
322,30.25402522087097,0.09200930595397949,10.86846585387974,10.643211858561743,102112.0,7.0,-1.0,986.0,20.6875,-1.0625,-55.0625,-0.1875,0.125,0.125,267.875,0.1875,0.625,0.00286865234375,0.00531005859375,-0.7197265625,-0.6942138671875,4.0,10.0,5.0,3.0,-11.0,980.0,2258,2037,1524,2258,2037,1524,13.907857037907451,-4.684008018533966,-21.29757316636909,
323,30.346034049987793,0.09200882911682129,10.868522179869556,10.64389499688609,102112.0,7.0,-1.0,978.0,21.0625,-1.0625,-54.6875,-0.75,0.5,-0.0625,267.875,0.125,0.625,0.00299072265625,0.00537109375,-0.7197265625,-0.6942138671875,4.0,9.0,-2.0,3.0,-11.0,980.0,2252,2035,1536,2252,2035,1536,7.815694798888844,-5.997091816806762,-9.6151455383592,
324,30.438043355941772,0.09200930595397949,10.86846585387974,10.644573838441305,102112.0,7.0,-2.0,984.0,20.6875,-1.5,-55.875,-0.875,0.5625,0.0625,267.875,0.125,0.6875,0.00311279296875,0.00543212890625,-0.7197265625,-0.6942138671875,4.0,9.0,4.0,3.0,-11.0,980.0,2231,2018,1660,2231,2018,1660,-10.360422986349137,-19.76213754964122,94.89733264093822,
325,30.52805233001709,0.09000897407531738,11.110003311039003,10.645946111682981,102112.0,6.0,-1.0,987.0,20.6875,-0.375,-55.875,-0.5625,0.3125,-0.125,267.875,0.125,0.6875,0.003173828125,0.0054931640625,-0.7197265625,-0.6942138671875,3.0,10.0,6.0,3.0,-12.0,980.0,2247,2023,1606,2247,2023,1606,4.124853662799799,-13.96310168356883,41.3948442602858,
326,30.61906147003174,0.09100914001464844,10.987907366656188,10.64696252427825,102107.75,7.0,-5.0,986.0,20.25,-0.6875,-55.5,0.125,-0.125,0.1875,267.875,0.125,0.6875,0.00323486328125,0.00555419921875,-0.7197265625,-0.6942138671875,4.0,7.0,5.0,3.0,-12.0,980.0,2186,2036,1670,2186,2036,1670,-47.8029609704199,-1.8890475799111872,92.35584875512549,
327,30.71107053756714,0.09200906753540039,10.868494016801671,10.647626223253896,102107.75,8.0,1.0,987.0,21.0625,-0.6875,-55.0625,0.4375,-0.125,0.0625,267.875,0.125,0.6875,0.003173828125,0.00555419921875,-0.7197265625,-0.6942138671875,5.0,13.0,6.0,3.0,-12.0,980.0,2278,2040,1385,2278,2040,1385,32.870278639325456,1.603905240916889,-153.2646527977318,
328,30.80408000946045,0.09300947189331055,10.751593140396299,10.647940139723884,102107.75,9.0,-1.0,984.0,21.0625,-1.0625,-56.25,0.125,0.0,0.1875,267.875,0.125,0.6875,0.003173828125,0.00555419921875,-0.7197265625,-0.6942138671875,6.0,10.0,3.0,3.0,-12.0,980.0,189,2370,-857,189,2370,-857,-1699.0867442280685,274.6783862348362,-1997.5538047314813,
329,30.895089149475098,0.09100914001464844,10.987907366656188,10.648941597425027,102107.75,8.0,0.0,979.0,21.0625,-1.875,-56.0,-0.0625,-0.125,0.0,267.875,0.125,0.6875,0.003173828125,0.00555419921875,-0.7197265625,-0.6942138671875,5.0,12.0,-1.0,3.0,-12.0,980.0,2264,2041,1534,2264,2041,1534,187.33583458498515,-24.828506824747393,179.2084997858135,
330,30.98809838294983,0.09300923347473145,10.751620700881036,10.649249783638597,102111.75,6.0,0.0,985.0,21.0625,-0.375,-56.25,0.125,-0.1875,-0.0625,267.875,0.125,0.6875,0.003173828125,0.00555419921875,-0.7197265625,-0.6942138671875,3.0,12.0,4.0,3.0,-12.0,980.0,2243,2043,1667,2243,2043,1667,155.52560464861665,-21.260962211306165,275.5167929000286,
331,31.079107522964478,0.09100914001464844,10.987907366656188,10.65024147670337,102111.75,9.0,0.0,989.0,21.0625,-0.6875,-56.25,0.25,-0.25,0.0,267.875,0.125,0.6875,0.003173828125,0.00555419921875,-0.7197265625,-0.6942138671875,6.0,11.0,9.0,3.0,-12.0,980.0,2246,2014,1700,2246,2014,1700,146.08833969237074,-44.15986527077886,282.2222724653997,
332,31.170116662979126,0.09100914001464844,10.987907366656188,10.65122737876428,102111.75,9.0,1.0,992.0,20.6875,-0.6875,-55.875,0.5,-0.375,0.0,267.875,0.125,0.6875,0.00323486328125,0.00555419921875,-0.7197265625,-0.6942138671875,7.0,13.0,9.0,3.0,-12.0,980.0,2249,2046,1504,2249,2046,1504,137.37774413775577,-13.68535189348804,94.66165950798879,
333,31.26512598991394,0.09500932693481445,10.525282435545472,10.650844653798135,102111.75,9.0,-1.0,989.0,21.75,-1.5,-56.25,0.0,0.0,0.0,267.875,0.125,0.6875,0.00323486328125,0.00555419921875,-0.7197265625,-0.6942138671875,6.0,10.0,8.0,3.0,-12.0,980.0,2238,2037,1494,2238,2037,1494,117.88474361624156,-19.925600525522473,79.26824425050364,
334,31.353135108947754,0.08800911903381348,11.36245892446436,10.652842174774445,102111.75,10.0,0.0,980.0,21.5,-0.6875,-55.5,-0.1875,0.125,-0.125,267.875,0.125,0.6875,0.0032958984375,0.00567626953125,-0.7197265625,-0.6942138671875,7.0,13.0,0.0,3.0,-12.0,980.0,2258,2087,1463,2258,2087,1463,126.30580510146609,25.354137574130537,46.04239999051844,
335,31.443143844604492,0.09000873565673828,11.110032739640394,10.654150922554283,102110.5,7.0,0.0,988.0,21.5,-0.6875,-54.6875,-1.0625,0.625,0.0625,267.875,0.125,0.75,0.00341796875,0.00579833984375,-0.7197265625,-0.6942138671875,4.0,11.0,7.0,3.0,-12.0,980.0,2230,2039,1648,2230,2039,1648,92.62702752198852,-17.660812024788406,200.75955156742594,
336,31.53515315055847,0.09200930595397949,10.86846585387974,10.654776223721926,102110.5,6.0,-1.0,991.0,20.6875,-1.5,-55.0625,-0.6875,0.375,0.0625,267.875,0.125,0.75,0.00360107421875,0.005859375,-0.7197265625,-0.6942138671875,3.0,8.0,6.0,2.0,-13.0,980.0,2196,2051,1689,2196,2051,1689,57.041102797338255,-6.25846704989482,219.6128127974325,
337,31.627162218093872,0.09200906753540039,10.868494016801671,10.655397966979237,102110.5,4.0,-2.0,986.0,20.25,-1.875,-56.25,0.125,-0.125,0.0625,267.875,0.125,0.75,0.0035400390625,0.00592041015625,-0.7197265625,-0.6942138671875,3.0,11.0,6.0,3.0,-13.0,980.0,2265,2046,1519,2265,2046,1519,110.39324659321049,-9.960935283521563,60.434039532096335,
338,31.720171689987183,0.09300947189331055,10.751593140396299,10.655680029206568,102110.5,5.0,-1.0,977.0,20.6875,-1.0625,-55.0625,0.5,-0.5,-0.0625,267.875,0.125,0.75,0.00360107421875,0.0059814453125,-0.7197265625,-0.6942138671875,1.0,12.0,8.0,3.0,-13.0,980.0,2266,2044,1384,2266,2044,1384,102.7208392773438,-10.849688610311432,-55.98219220629459,
339,31.813180923461914,0.09300923347473145,10.751620700881036,10.655960522010886,102104.5,10.0,-2.0,982.0,20.25,-1.5,-54.25,0.5625,-0.3125,0.0,267.875,0.125,0.75,0.00360107421875,0.0059814453125,-0.7197265625,-0.6942138671875,6.0,13.0,10.0,3.0,-13.0,980.0,2251,2057,1505,2251,2057,1505,82.39321274347074,0.7481097342644656,48.5012866636987,
340,31.907190561294556,0.0940096378326416,10.637207238051761,10.655905268339154,102104.5,8.0,1.0,980.0,20.6875,-1.5,-55.0625,-0.4375,0.1875,-0.0625,267.875,0.125,0.75,0.00360107421875,0.0059814453125,-0.7197265625,-0.6942138671875,5.0,12.0,0.0,3.0,-13.0,980.0,2259,2030,1541,2259,2030,1541,82.60145502086338,-21.424248563183514,74.2530260544734,
341,31.999199390411377,0.09200882911682129,10.868522179869556,10.656516615918251,102104.5,9.0,-2.0,985.0,20.6875,0.0,-55.5,-1.125,0.8125,0.125,267.875,0.125,0.75,0.00372314453125,0.0059814453125,-0.7197265625,-0.6942138671875,3.0,10.0,-3.0,2.0,-13.0,980.0,2244,2035,1541,2244,2035,1541,63.687999866507575,-15.590200384568607,68.53554304827895,
