Index,Time,Difference,Hz,AveHz,0x6103 Pressure,0x6103 Acceleration-X,0x6103 Acceleration-Y,0x6103 Acceleration-Z,0x6103 Magnetic-X,0x6103 Magnetic-Y,0x6103 Magnetic-Z,0x6103 Angular-Vel-X,0x6103 Angular-Vel-Y,0x6103 Angular-Vel-Z,0x6103 Heading,0x6103 Roll,0x6103 Pitch,0x6103 Quaternion-X,0x6103 Quaternion-Y,0x6103 Quaternion-Z,0x6103 Quaternion-W,0x6103 Linear-Acceleration-X,0x6103 Linear-Acceleration-Y,0x6103 Linear-Acceleration-Z,0x6103 Gravity-X,0x6103 Gravity-Y,0x6103 Gravity-Z,0x6103 Measured-X,0x6103 Measured-Y,0x6103 Measured-Z,0x6103 Smoothed-X,0x6103 Smoothed-Y,0x6103 Smoothed-Z,0x6103 Velocity-X,0x6103 Velocity-Y,0x6103 Velocity-Z,
0,0.0009999275207519531,0.0009999275207519531,1000.072484501669,0.0,102281.75,-628.0,1045.0,-1213.0,18.375,-28.0,32.0625,28.0625,-21.875,-65.9375,230.625,-12.9375,-131.25,-0.128662109375,-0.89788818359375,-0.3787841796875,-0.183837890625,-400.0,332.0,-580.0,-228.0,713.0,-632.0,559,832,1275,597.4000000000001,840.0,255.0,,,,
1,0.15199995040893555,0.059999942779541016,16.666682561253765,6.578949514849404,102277.75,-138.0,632.0,-917.0,22.875,-23.5,32.5,-38.8125,-112.4375,113.6875,233.625,-15.8125,-127.6875,-0.1099853515625,-0.8843994140625,-0.40472412109375,-0.20477294921875,129.0,-113.0,-340.0,-267.0,746.0,-577.0,496,745,1236,577.1200000000001,821.0,451.20000000000005,-26.026024820351395,-24.383356587114257,251.7902401258852,
2,0.24599981307983398,0.09399986267089844,10.638313414361951,8.130087478363013,102277.75,-157.0,579.0,33.0,22.875,-27.5625,32.0625,-106.4375,-40.9375,47.875,229.0625,-12.8125,-113.0,-0.15289306640625,-0.81695556640625,-0.505859375,-0.23095703125,60.0,-300.0,407.0,-218.0,871.0,-391.0,477,787,1271,557.0960000000001,814.2,615.1600000000001,-40.424683170491484,-28.07605903366634,366.71024742743856,
3,0.33699989318847656,0.09100008010864258,10.989001315231004,8.902079972833008,102277.75,-123.0,639.0,168.0,20.25,-36.0,23.1875,-25.4375,-16.8125,21.3125,226.8125,-10.0,-106.875,-0.1793212890625,-0.78179931640625,-0.54803466796875,-0.23736572265625,47.0,-284.0,449.0,-171.0,923.0,-281.0,458,787,1263,537.2768000000001,808.7600000000001,744.7280000000001,-54.082060111109286,-30.517275358997946,448.1079234012383,
4,0.42799997329711914,0.09100008010864258,10.989001315231004,9.345794975606658,102277.75,-85.0,924.0,-519.0,19.875,-37.1875,21.5625,97.0,-45.0,44.875,230.6875,-9.5,-112.625,-0.21575927734375,-0.80194091796875,-0.5032958984375,-0.23870849609375,77.0,32.0,-146.0,-162.0,892.0,-372.0,323,799,1207,494.42144000000013,806.8080000000002,837.1824,-86.1799372527156,-29.819136010039486,491.8341905856577,
5,0.5190000534057617,0.09100008010864258,10.989001315231004,9.633910376673754,102275.0,-171.0,1181.0,-328.0,20.6875,-34.875,24.375,25.8125,-55.6875,-13.6875,237.3125,-10.5,-114.375,-0.2469482421875,-0.80133056640625,-0.4781494140625,-0.26129150390625,7.0,303.0,69.0,-179.0,878.0,-398.0,332,854,1179,461.9371520000001,816.2464000000002,905.54592,-107.03076311809494,-19.53673110621337,511.80896237248635,
6,0.6080000400543213,0.08899998664855957,11.235956741755135,9.868420402511708,102275.0,-195.0,1093.0,-1432.0,21.75,-34.875,23.5625,146.5625,1.0625,89.0,245.0625,-10.0,-124.1875,-0.30853271484375,-0.82568359375,-0.39801025390625,-0.254150390625,-24.0,295.0,-889.0,-170.0,798.0,-543.0,218,829,1133,413.14972160000013,818.7971200000002,951.0367360000001,-140.99875058671736,-15.825599783349595,511.75690100548695,
7,0.6969997882843018,0.08899974822998047,11.235986841400297,10.043044657489544,102275.0,-201.0,501.0,-449.0,21.0625,-30.875,30.0625,-103.4375,15.0,-1.875,236.375,-5.25,-121.5625,-0.3270263671875,-0.80859375,-0.4310302734375,-0.23126220703125,-111.0,-330.0,62.0,-90.0,831.0,-511.0,137,938,1120,357.9197772800001,842.6376960000002,984.8293888000002,-177.92519221911107,6.019146063478457,501.5880423972188,
8,0.7809998989105225,0.0840001106262207,11.904746226463292,10.24327917476023,102275.0,-231.0,722.0,-740.0,18.0625,-35.6875,27.1875,13.75,-34.0,22.25,240.9375,-5.9375,-119.8125,-0.345947265625,-0.79229736328125,-0.43316650390625,-0.25494384765625,-129.0,-123.0,-255.0,-102.0,846.0,-485.0,103,957,1118,306.93582182400013,865.5101568000002,1011.4635110400002,-210.96018337026362,26.522066604292796,487.3803430324818,
9,0.872999906539917,0.09200000762939453,10.869564315997886,10.309279454187989,102271.5,-443.0,875.0,-685.0,19.1875,-35.6875,25.5625,-105.8125,-66.6875,13.6875,248.25,-7.1875,-115.1875,-0.3717041015625,-0.757080078125,-0.4447021484375,-0.30157470703125,-303.0,-12.0,-225.0,-123.0,880.0,-414.0,82,999,1068,261.9486574592001,892.2081254400002,1022.7708088320002,-232.3685467379856,46.824904593163296,459.31577246443265,
10,0.9630000591278076,0.09000015258789062,11.111092273131861,10.384215354106036,102271.5,-377.0,675.0,-323.0,20.6875,-38.25,19.875,-104.8125,-122.25,38.4375,256.625,-7.75,-105.6875,-0.40087890625,-0.68817138671875,-0.474365234375,-0.37506103515625,-154.0,-290.0,-49.0,-132.0,940.0,-244.0,66,1061,1060,222.75892596736008,925.9665003520003,1030.2166470656002,-248.0051042920731,72.10150317463204,430.3187754508258,
11,1.053999900817871,0.09099984169006348,10.989030106292951,10.43643361964678,102271.5,-82.0,744.0,-613.0,22.25,-41.1875,11.5,-66.875,-156.0625,-62.0,272.5625,-11.0,-97.75,-0.43359375,-0.6151123046875,-0.4549560546875,-0.47607421875,110.0,-208.0,-433.0,-187.0,953.0,-130.0,91,1094,961,196.40714077388807,959.5732002816003,1016.3733176524803,-251.2064144466969,94.98617530224904,385.4706229368201,
12,1.1399998664855957,0.08599996566772461,11.627911618751906,10.526317022293814,102271.5,-565.0,1067.0,-451.0,26.6875,-42.25,1.375,72.875,-184.75,-48.0625,295.125,-18.625,-91.25,-0.44183349609375,-0.56170654296875,-0.3875732421875,-0.582275390625,-259.0,135.0,-430.0,-305.0,931.0,-21.0,6,1048,1054,158.32571261911045,977.2585602252803,1023.8986541219842,-265.9596965635708,103.50681258653724,362.5271889180797,
13,1.2269999980926514,0.08700013160705566,11.494235485948398,10.594947041734521,102271.5,-153.0,824.0,-288.0,29.5625,-39.6875,-5.6875,115.5,-111.25,74.0625,306.1875,-17.125,-93.75,-0.52374267578125,-0.50738525390625,-0.3094482421875,-0.61029052734375,136.0,-110.0,-225.0,-289.0,934.0,-62.0,-5,999,1075,125.66057009528836,981.6068481802242,1034.1189232975876,-274.3912846351934,99.3852669374164,343.6581072802182,
14,1.312000036239624,0.08500003814697266,11.764700602497504,10.670731412573708,102267.0,366.0,1022.0,-361.0,25.0625,-41.5,-3.6875,146.9375,13.3125,94.9375,301.8125,-7.6875,-104.25,-0.62982177734375,-0.47491455078125,-0.2987060546875,-0.53717041015625,498.0,81.0,-121.0,-131.0,941.0,-239.0,-48,896,1077,90.9284560762307,964.4854785441795,1042.6951386380701,-284.72635076818705,76.22266173243298,324.9654716649573,
15,1.4009997844696045,0.08899974822998047,11.235986841400297,10.706639762745398,102267.0,-265.0,1392.0,-696.0,18.375,-44.875,2.75,126.375,-47.0,4.5625,300.1875,-4.4375,-110.5625,-0.67608642578125,-0.46734619140625,-0.283935546875,-0.49383544921875,-230.0,441.0,-470.0,-76.0,915.0,-344.0,33,861,1095,79.34276486098456,943.7883828353437,1053.1561109104562,-272.8260256603501,52.44699006098013,308.9936600504159,
16,1.489999771118164,0.08899998664855957,11.235956741755135,10.738256683081815,102267.0,-336.0,899.0,-117.0,16.5625,-44.0625,7.5625,-63.375,-35.5625,19.0625,304.0,-4.8125,-108.5,-0.67987060546875,-0.4429931640625,-0.27410888671875,-0.51617431640625,-253.0,-26.0,192.0,-82.0,926.0,-310.0,-36,862,1058,56.27421188878765,927.430706268275,1054.124888728365,-271.776610957871,34.25642256093786,286.03930444192235,
17,1.5789999961853027,0.08900022506713867,11.23592664227124,10.766307815750604,102267.0,120.0,663.0,-233.0,14.75,-46.0,3.5625,-6.9375,-7.4375,46.4375,303.5625,-2.1875,-107.4375,-0.6944580078125,-0.409423828125,-0.27972412109375,-0.5213623046875,158.0,-270.0,60.0,-37.0,934.0,-294.0,-16,770,1055,41.81936951103012,895.94456501462,1054.299910982692,-263.3556551549349,4.377928073927812,264.16570136509375,
18,1.6609997749328613,0.0819997787475586,12.195154856192504,10.836846742334792,102269.5,31.0,733.0,6.0,12.875,-48.25,3.5625,-38.6875,14.9375,18.4375,301.875,-0.5,-104.6875,-0.688720703125,-0.39105224609375,-0.29644775390625,-0.53375244140625,40.0,-214.0,255.0,-8.0,948.0,-249.0,8,694,1078,35.055495608824096,855.5556520116961,1059.0399287861537,-249.42872941222234,-33.88544912564833,248.27594669732466,
19,1.750999927520752,0.09000015258789062,11.111092273131861,10.850942767828768,102269.5,182.0,943.0,-293.0,11.75,-47.875,1.875,51.5625,20.125,59.1875,296.75,3.125,-106.6875,-0.70953369140625,-0.37982177734375,-0.31610107421875,-0.5023193359375,117.0,9.0,-3.0,65.0,934.0,-289.0,-4,688,1058,27.244396487059277,822.0445216093569,1058.831943028923,-236.90553516591237,-59.946854722928975,228.98075573324388,
20,1.8320000171661377,0.08100008964538574,12.345665348988488,10.91703046539124,102269.5,191.0,1062.0,-401.0,7.5625,-48.25,5.5625,-12.5,0.5625,-4.875,290.125,7.1875,-109.0,-0.72271728515625,-0.373291015625,-0.3330078125,-0.47686767578125,68.0,142.0,-84.0,122.0,919.0,-317.0,50,653,1154,31.795517189647423,788.2356172874856,1077.8655544231385,-214.33743974504762,-87.47024013944555,229.4428974842714,
21,1.9149999618530273,0.08299994468688965,12.048200800282656,10.966057659698121,102269.5,33.0,908.0,-170.0,7.25,-47.875,2.25,-31.125,12.0,1.4375,293.5,5.875,-104.75,-0.70294189453125,-0.36456298828125,-0.33697509765625,-0.5093994140625,-63.0,-4.0,102.0,100.0,943.0,-249.0,10,583,988,27.43641375171794,747.1884938299886,1059.8924435385109,-201.87744710644097,-118.81491854683183,195.10193340931454,
22,2.003000020980835,0.08800005912780762,11.363628728335758,10.98352459788142,102268.0,222.0,939.0,54.0,7.5625,-48.25,1.5,-2.5,53.5,17.625,289.8125,7.75,-101.875,-0.69085693359375,-0.35357666015625,-0.36236572265625,-0.51611328125,89.0,-11.0,255.0,133.0,950.0,-200.0,150,549,786,51.949131001374354,707.550795063991,1005.1139548308088,-164.88427049726695,-144.34913293525128,132.14793912282556,
23,2.0879998207092285,0.08499979972839355,11.76473360167174,11.015326616353644,102268.0,116.0,1152.0,-438.0,6.875,-49.25,3.5625,23.25,46.75,-59.5625,285.8125,7.25,-104.8125,-0.68914794921875,-0.38995361328125,-0.36810302734375,-0.48736572265625,-7.0,211.0,-189.0,124.0,940.0,-249.0,74,505,1014,56.35930480109948,667.0406360511928,1006.8911638646471,-148.19307363738284,-169.93177432815074,123.58249390486257,
24,2.17799973487854,0.08999991416931152,11.11112170750251,11.019285087901263,102268.0,-9.0,1003.0,-222.0,8.375,-47.875,4.75,-15.75,-10.4375,19.75,287.0,5.625,-103.625,-0.676025390625,-0.4007568359375,-0.36761474609375,-0.49725341796875,-105.0,55.0,8.0,96.0,948.0,-230.0,63,496,1081,57.68744384087959,632.8325088409543,1021.7129310917178,-135.64590914961224,-186.1140088959221,126.74749926186779,
25,2.2639999389648438,0.08600020408630371,11.627879382663684,11.042403124547173,102268.0,218.0,1022.0,-51.0,8.375,-48.5625,2.75,-12.5625,2.875,22.0625,286.4375,7.375,-102.0,-0.67828369140625,-0.37872314453125,-0.37677001953125,-0.5045166015625,91.0,71.0,103.0,122.0,951.0,-205.0,71,497,1101,60.34995507270368,605.6660070727635,1037.5703448733743,-122.81730346677698,-196.10666825826323,131.185825116309,
26,2.3499999046325684,0.08599996566772461,11.627911618751906,11.063830236225138,102268.0,298.0,995.0,-137.0,7.5625,-48.25,1.0625,-24.4375,41.1875,38.5,282.75,9.875,-100.875,-0.67669677734375,-0.36798095703125,-0.39801025390625,-0.49822998046875,130.0,47.0,45.0,168.0,948.0,-183.0,53,500,1104,58.87996405816295,584.5328056582108,1050.8562758986996,-114.67652637083796,-199.92804966914395,132.9800642259725,
27,2.440999746322632,0.09099984169006348,10.989030106292951,11.061041706651352,102268.5,230.0,868.0,-51.0,5.0625,-49.25,0.6875,-19.9375,-0.0625,8.75,279.8125,12.0,-98.75,-0.6697998046875,-0.355224609375,-0.41986083984375,-0.49884033203125,26.0,-79.0,95.0,204.0,947.0,-146.0,39,464,1107,54.90397124653036,560.4262445265687,1062.0850207189596,-109.21074130290992,-204.9314847493,132.24186142677303,
28,2.5269999504089355,0.08600020408630371,11.627879382663684,11.08033262741808,102268.5,231.0,958.0,-131.0,3.5625,-49.6875,-0.875,27.8125,-4.4375,3.75,280.6875,12.125,-99.5625,-0.67742919921875,-0.349853515625,-0.4127197265625,-0.4984130859375,63.0,44.0,-61.0,206.0,945.0,-159.0,78,463,1112,59.52317699722429,540.940995621255,1072.0680165751678,-96.66572353950215,-206.5978139725408,130.99748061732024,
29,2.611999988555908,0.08500003814697266,11.764700602497504,11.102603417710265,102268.5,214.0,969.0,-177.0,4.25,-49.25,0.25,-0.5,21.8125,-12.4375,279.6875,12.0,-99.6875,-0.67431640625,-0.3572998046875,-0.41656494140625,-0.49407958984375,9.0,23.0,-16.0,204.0,945.0,-161.0,51,438,1137,57.818541597779436,520.352796497004,1085.0544132601344,-90.76666126049882,-209.34026019204404,132.67481691538677,
30,2.69599986076355,0.0839998722076416,11.904780015951362,11.127597013860203,102268.5,180.0,974.0,-129.0,4.6875,-48.875,0.25,-8.3125,19.6875,-24.5625,280.3125,10.5,-99.1875,-0.66424560546875,-0.37091064453125,-0.41552734375,-0.49853515625,1.0,22.0,24.0,178.0,951.0,-154.0,11,470,1085,48.45483327822355,510.2822371976032,1085.0435306081076,-92.36104069463458,-202.45242022572253,122.44888023336756,
31,2.7769999504089355,0.08100008964538574,12.345665348988488,11.163125874537737,102268.25,111.0,929.0,-212.0,6.1875,-48.875,1.0625,-21.25,25.25,-13.5625,279.75,9.25,-98.5,-0.65087890625,-0.38671875,-0.4208984375,-0.4996337890625,-47.0,-27.0,-68.0,158.0,957.0,-143.0,-32,459,1047,32.36386662257885,500.02578975808257,1077.4348244864861,-100.54557465051653,-196.6135292856934,105.78735691264016,
32,2.86299991607666,0.08599996566772461,11.627911618751906,11.177087299342821,102268.25,168.0,882.0,-40.0,6.5,-48.5625,1.5,-14.5,16.6875,-0.125,278.375,9.375,-96.4375,-0.636474609375,-0.38763427734375,-0.4356689453125,-0.50482177734375,8.0,-78.0,68.0,160.0,961.0,-108.0,10,440,1054,27.89109329806308,488.0206318064661,1072.747859589189,-96.80825939635665,-192.2230960342476,93.44526018424759,
33,2.9539997577667236,0.09099984169006348,10.989030106292951,11.171294077880557,102268.25,203.0,939.0,-81.0,6.875,-48.1875,-0.5,15.6875,19.0,-4.0,276.9375,9.375,-96.625,-0.63250732421875,-0.39642333984375,-0.441162109375,-0.4981689453125,51.0,-3.0,15.0,159.0,961.0,-112.0,-3,458,1039,21.712874638450465,482.0165054451729,1065.9982876713511,-94.58175599857547,-182.50234109127086,80.53878897631294,
34,3.046999931335449,0.09300017356872559,10.752668104011834,11.158516825137692,102268.25,110.0,963.0,-107.0,8.0,-47.875,1.0625,-0.6875,11.8125,0.375,275.6875,9.125,-96.9375,-0.62811279296875,-0.40692138671875,-0.4449462890625,-0.4918212890625,-32.0,4.0,48.0,155.0,961.0,-117.0,-32,442,1037,10.970299710760374,474.0132043561383,1060.198630137081,-96.19333418073981,-175.07603753395165,69.53544419625055,
35,3.132999897003174,0.08599996566772461,11.627911618751906,11.171401580152859,102271.5,198.0,1023.0,-137.0,7.25,-48.875,0.6875,5.625,13.5,10.375,274.125,9.875,-97.125,-0.62896728515625,-0.40716552734375,-0.45098876953125,-0.48504638671875,32.0,53.0,227.0,165.0,959.0,-119.0,-47,461,1040,-0.6237602313917012,471.41056348491065,1056.158904109665,-99.16717968068178,-163.92545505183836,60.56424954791035,
36,3.2239999771118164,0.09100008010864258,10.989001315231004,11.166253181009694,102271.5,172.0,973.0,-135.0,7.25,-48.875,1.5,-9.4375,7.375,2.6875,272.9375,10.4375,-96.4375,-0.625,-0.40625,-0.4591064453125,-0.4832763671875,-4.0,14.0,-26.0,177.0,958.0,-109.0,-41,468,1037,-8.699008185113362,470.7284507879286,1052.327123287732,-98.3642029448576,-151.88036678681573,52.65852910684518,
37,3.312000036239624,0.08800005912780762,11.363628728335758,11.171497462303481,102271.5,121.0,954.0,-157.0,6.875,-50.0625,1.0625,-5.9375,-4.0,-1.75,273.1875,10.125,-95.9375,-0.62152099609375,-0.40606689453125,-0.46014404296875,-0.4869384765625,-51.0,-6.0,-57.0,173.0,960.0,-100.0,-4,459,1052,-7.75920654809069,468.3827606303429,1052.2616986301857,-89.96783343823516,-142.2380560530446,48.54657582872937,
38,3.3929998874664307,0.08099985122680664,12.345701687771165,11.199528812355718,102271.5,144.0,946.0,-134.0,6.0625,-48.875,0.25,-19.1875,-32.875,19.5,274.375,10.5625,-95.625,-0.626953125,-0.39410400390625,-0.4566650390625,-0.4930419921875,-55.0,-12.0,-75.0,180.0,959.0,-94.0,-28,437,1048,-11.807365238472553,462.1062085042744,1051.4093589041486,-86.88856695085944,-137.2523356305266,43.998239126356786,
39,3.4769997596740723,0.0839998722076416,11.904780015951362,11.21656678045206,102271.5,216.0,937.0,-23.0,5.375,-49.6875,0.6875,-15.1875,-29.4375,13.4375,276.625,11.875,-94.75,-0.6383056640625,-0.36492919921875,-0.45068359375,-0.50628662109375,14.0,-15.0,26.0,200.0,956.0,-81.0,-7,433,1030,-10.845892190778043,456.28496680341954,1047.127487123319,-79.31679566108991,-132.02005213083973,36.68531960986633,
40,3.563999891281128,0.08700013160705566,11.494235485948398,11.223344899043042,102266.75,267.0,984.0,-49.0,4.25,-49.25,-1.6875,8.1875,-7.625,4.0625,277.3125,12.5,-95.125,-0.6466064453125,-0.35467529296875,-0.44610595703125,-0.50701904296875,54.0,31.0,36.0,213.0,953.0,-86.0,-3,415,1060,-9.276713752622435,448.02797344273563,1049.7019896986553,-71.82059139563823,-129.1624107259733,36.139129292134,
41,3.6470000743865967,0.08300018310546875,12.048166191745565,11.242116579034057,102266.75,220.0,1003.0,-103.0,3.5625,-49.25,-1.25,1.875,1.875,-4.4375,277.5625,12.375,-95.8125,-0.65045166015625,-0.3560791015625,-0.44189453125,-0.50482177734375,9.0,50.0,-6.0,211.0,952.0,-97.0,-10,418,987,-9.421371002097949,442.02237875418854,1037.1615917589243,-66.42460566102828,-124.78834812244011,21.72257885302491,
42,3.7319998741149902,0.08499979972839355,11.76473360167174,11.254019672216607,102266.75,201.0,963.0,-112.0,4.25,-49.25,-0.5,1.9375,0.1875,-4.8125,277.5625,12.125,-95.875,-0.64910888671875,-0.35943603515625,-0.44171142578125,-0.50433349609375,-5.0,10.0,-13.0,206.0,953.0,-99.0,27,439,1157,-2.137096801678359,441.4179030033509,1061.1292734071394,-54.71120002552016,-115.72723052266244,41.76189128369344,
43,3.812999963760376,0.08100008964538574,12.345665348988488,11.27720965347019,102266.75,160.0,929.0,-70.0,5.0625,-49.6875,-1.25,7.8125,-3.625,-2.0625,278.0,11.8125,-96.125,-0.6495361328125,-0.36114501953125,-0.4388427734375,-0.50506591796875,-40.0,-24.0,32.0,201.0,954.0,-102.0,50,430,1083,8.290322558657312,439.1343224026807,1065.5034187257115,-40.585963523082484,-108.98704255820277,42.704359195251115,
44,3.8979997634887695,0.08499979972839355,11.76473360167174,11.28784060279658,102272.0,232.0,966.0,-164.0,5.0625,-48.875,-0.5,-3.9375,-3.875,6.5,277.875,12.1875,-97.125,-0.65673828125,-0.35986328125,-0.43505859375,-0.4998779296875,25.0,15.0,-45.0,207.0,950.0,-119.0,3,465,1089,7.23225804692585,444.3074579221446,1070.2027349805692,-38.4193285595757,-95.90877706328962,43.67316123354404,
45,3.9839999675750732,0.08600020408630371,11.627879382663684,11.295180814820636,102272.0,210.0,968.0,-131.0,4.6875,-47.5,-1.25,-1.375,-1.625,-2.0,278.4375,12.1875,-97.125,-0.65826416015625,-0.3568115234375,-0.432861328125,-0.50201416015625,3.0,17.0,-12.0,207.0,951.0,-118.0,22,441,1075,10.18580643754068,443.64596633771566,1071.1621879844554,-32.81659041884479,-89.11606554485809,41.16937091135544,
46,4.068999767303467,0.08499979972839355,11.76473360167174,11.304989587277435,102272.0,198.0,964.0,-113.0,4.25,-48.5625,-0.875,0.75,-0.625,-4.6875,278.75,11.9375,-97.0,-0.6575927734375,-0.357177734375,-0.431640625,-0.50372314453125,-5.0,12.0,3.0,203.0,952.0,-117.0,-5,441,1055,7.148645150032545,443.11677307017254,1067.9297503875644,-33.0410302524627,-82.73351646977014,35.07111427589935,
47,4.158999919891357,0.09000015258789062,11.111092273131861,11.300793677636749,102272.0,208.0,943.0,-52.0,3.875,-48.5625,-0.5,-0.3125,2.75,0.1875,279.125,11.75,-96.9375,-0.65655517578125,-0.35784912109375,-0.43060302734375,-0.50537109375,8.0,-9.0,63.0,199.0,953.0,-116.0,11,411,1068,7.9189161200260365,436.69341845613803,1067.9438003100515,-29.83786243265881,-81.85856310970586,32.38265894551437,
48,4.247999906539917,0.08899998664855957,11.235956741755135,11.299435276847024,102272.75,214.0,949.0,-71.0,4.6875,-48.875,-1.25,-3.5625,13.125,2.75,278.75,11.8125,-96.8125,-0.655517578125,-0.3587646484375,-0.4326171875,-0.50445556640625,3.0,9.0,25.0,201.0,952.0,-114.0,-9,430,1082,4.53513289602083,435.35473476491046,1070.7550402480413,-30.467890253830824,-76.71364093776401,32.321390922423696,
49,4.3399999141693115,0.09200000762939453,10.869564315997886,11.290322803929996,102272.75,218.0,958.0,-100.0,4.25,-49.6875,-0.0625,2.6875,7.25,-1.625,277.75,12.0,-96.6875,-0.65301513671875,-0.3616943359375,-0.4373779296875,-0.50146484375,14.0,5.0,12.0,204.0,952.0,-112.0,43,422,1074,12.228106316816664,432.68378781192837,1071.404032198433,-21.683178962133454,-73.04215687169061,30.37582182178887,
50,4.427999973297119,0.08800005912780762,11.363628728335758,11.291779652557146,102272.75,197.0,971.0,-138.0,5.0625,-49.25,-0.5,2.875,8.25,-2.9375,277.0625,11.9375,-96.75,-0.65069580078125,-0.36639404296875,-0.4403076171875,-0.49847412109375,-6.0,19.0,-25.0,203.0,952.0,-113.0,31,455,1067,15.982485053453331,437.1470302495427,1070.5232257587465,-16.728494994759483,-63.512576283679124,27.266178424627558,
51,4.516000032424927,0.08800005912780762,11.363628728335758,11.293179724052143,102272.75,175.0,961.0,-132.0,4.25,-48.5625,0.25,-2.0625,6.25,-2.5625,276.875,11.625,-96.875,-0.64849853515625,-0.3717041015625,-0.44061279296875,-0.49713134765625,-22.0,7.0,-16.0,198.0,953.0,-115.0,12,442,1053,15.185988042762666,438.1176241996342,1067.0185806069971,-16.137335296242288,-57.77283877413558,22.100120238594997,
52,4.603999853134155,0.08799982070922852,11.363659515900926,11.294526858987886,102272.75,181.0,944.0,-137.0,5.0625,-49.25,-0.0625,2.375,-0.3125,-2.625,276.875,11.375,-96.875,-0.6470947265625,-0.37451171875,-0.44049072265625,-0.4969482421875,-12.0,-9.0,-21.0,194.0,954.0,-115.0,9,444,1060,13.948790434210135,439.2940993597074,1065.6148644855978,-15.977310591497424,-52.29491232613214,19.170156871559783,
53,4.68999981880188,0.08599996566772461,11.627911618751906,11.300640095448772,102269.75,198.0,947.0,-129.0,5.0625,-48.5625,-0.5,1.375,-1.4375,0.3125,277.1875,11.375,-97.0625,-0.64892578125,-0.37353515625,-0.43841552734375,-0.4971923828125,4.0,-6.0,-10.0,193.0,953.0,-118.0,-55,457,1037,0.15903234736810923,442.8352794877659,1059.8918915884783,-27.093706473340294,-45.097611301273815,12.569995618044922,
54,4.776000022888184,0.08600020408630371,11.627879382663684,11.30653260913191,102269.75,184.0,958.0,-118.0,5.375,-48.1875,0.25,0.1875,-3.3125,2.25,277.375,11.375,-97.3125,-0.6507568359375,-0.37286376953125,-0.43646240234375,-0.4969482421875,-8.0,5.0,4.0,193.0,953.0,-122.0,-10,450,1063,-1.8727741221055125,444.26822359021276,1060.5135132707828,-26.82666231770163,-40.34211343980367,12.158672885103844,
55,4.859999895095825,0.0839998722076416,11.904780015951362,11.316872672260738,102269.75,191.0,974.0,-142.0,5.375,-49.25,-0.0625,0.9375,-5.875,0.25,277.9375,11.375,-97.5625,-0.65386962890625,-0.37030029296875,-0.43292236328125,-0.49786376953125,1.0,12.0,-2.0,193.0,952.0,-126.0,26,429,1065,3.70178070231559,441.21457887217025,1061.4108106166263,-19.650992956125897,-40.03494928830671,12.044978891310492,
56,4.93999981880188,0.07999992370605469,12.500011920940324,11.336032804467173,102269.75,189.0,952.0,-105.0,5.375,-48.5625,-0.0625,-1.9375,-5.875,-0.75,278.5625,11.25,-97.5625,-0.65545654296875,-0.36761474609375,-0.43011474609375,-0.500244140625,-2.0,0.0,12.0,192.0,953.0,-127.0,160,374,1145,34.961424561852475,427.7716630977362,1078.1286484933012,11.949569409914922,-49.891076965418996,27.20844981848987,
57,5.0269999504089355,0.08700013160705566,11.494235485948398,11.338770750408138,102267.5,193.0,948.0,-100.0,5.0625,-48.875,-0.0625,1.0,-2.75,-1.0,279.0,11.25,-97.625,-0.65704345703125,-0.3658447265625,-0.42791748046875,-0.5013427734375,0.0,-2.0,32.0,191.0,953.0,-128.0,154,359,1152,58.769139649481986,414.017330478189,1092.902918794641,32.10061680251914,-58.222820471329285,38.18945771466848,
58,5.108999967575073,0.0820000171661377,12.195119398254892,11.352515241359264,102267.5,216.0,963.0,-117.0,5.375,-49.25,1.5,4.4375,0.75,-1.1875,278.875,11.25,-97.8125,-0.6578369140625,-0.3665771484375,-0.42767333984375,-0.49993896484375,24.0,10.0,14.0,192.0,952.0,-131.0,92,388,1112,65.41531171958559,408.8138643825513,1096.7223350357128,35.86978567781721,-58.62584384975958,38.8353937266849,
59,5.193999767303467,0.08499979972839355,11.76473360167174,11.359261194312802,102267.5,194.0,969.0,-133.0,5.0625,-49.25,0.25,4.1875,3.375,-1.625,278.875,11.125,-98.25,-0.65869140625,-0.3695068359375,-0.426025390625,-0.49810791015625,4.0,17.0,4.0,189.0,952.0,-137.0,83,367,1120,68.93224937566848,400.45109150604105,1101.3778680285704,36.29375144617302,-61.68736009321213,40.06244352820694,
60,5.2739996910095215,0.07999992370605469,12.500011920940324,11.376564944112674,102267.5,179.0,955.0,-133.0,6.1875,-48.1875,1.0625,7.8125,5.25,-3.9375,278.5625,10.9375,-98.5625,-0.658203125,-0.37408447265625,-0.426025390625,-0.49530029296875,-6.0,3.0,10.0,186.0,951.0,-143.0,-21,454,1053,50.94579950053478,411.16087320483285,1091.7022944228565,16.18715807001606,-46.62925865030621,27.66488689970633,
61,5.359999895095825,0.08600020408630371,11.627879382663684,11.380597237662716,102267.5,173.0,971.0,-185.0,6.1875,-49.25,1.0625,0.875,6.6875,-3.0,278.125,10.75,-98.875,-0.6572265625,-0.37969970703125,-0.426513671875,-0.49188232421875,-9.0,19.0,-35.0,183.0,951.0,-149.0,-57,458,1033,29.356639600427833,420.5286985638663,1079.9618355382854,-4.389036442819377,-34.65135409607479,15.02290934329647,
62,5.447000026702881,0.08700013160705566,11.494235485948398,11.382412281266165,102268.5,159.0,937.0,-145.0,6.5,-48.875,1.0625,-2.625,4.5,-0.25,278.0,10.5625,-98.75,-0.6549072265625,-0.38214111328125,-0.42767333984375,-0.4920654296875,-20.0,-15.0,1.0,180.0,952.0,-147.0,-66,456,1035,10.285311680342266,427.6229588510931,1070.9694684306282,-20.930276365749144,-25.70438125849733,5.907395670276509,
63,5.5269999504089355,0.07999992370605469,12.500011920940324,11.398588848429194,102268.5,190.0,946.0,-134.0,5.75,-47.5,1.5,3.6875,1.125,-2.4375,277.8125,10.625,-98.625,-0.65423583984375,-0.38238525390625,-0.4287109375,-0.49188232421875,9.0,-6.0,11.0,181.0,952.0,-145.0,-27,439,1044,2.8282493442738126,429.8983670808745,1065.5755747445025,-26.496074428982368,-21.535061391802984,0.26089857964731245,
64,5.611000061035156,0.0840001106262207,11.904746226463292,11.406166334668127,102268.5,185.0,959.0,-151.0,6.1875,-47.5,1.5,-0.6875,4.25,3.25,277.5625,10.625,-98.8125,-0.65423583984375,-0.384033203125,-0.42913818359375,-0.490234375,3.0,6.0,-3.0,181.0,952.0,-148.0,-57,452,1043,-9.13740052458095,434.3186936646996,1061.0604597956021,-35.424374632454814,-15.824900965807558,-3.89804053003324,
65,5.69599986076355,0.08499979972839355,11.76473360167174,11.411517132882572,102268.5,188.0,976.0,-143.0,6.1875,-47.875,1.875,0.0,0.9375,2.0,277.25,10.75,-98.75,-0.65374755859375,-0.38397216796875,-0.430908203125,-0.4893798828125,4.0,24.0,3.0,183.0,952.0,-146.0,-42,446,1033,-15.709920419664762,436.6549549317597,1055.4483678364818,-38.65064160137163,-12.4900007512637,-8.681798456450059,
66,5.7799999713897705,0.0840001106262207,11.904746226463292,11.418685177628236,102268.25,188.0,983.0,-119.0,5.375,-47.0625,1.0625,0.9375,5.75,-2.625,276.8125,10.875,-98.5625,-0.652099609375,-0.38507080078125,-0.43353271484375,-0.4884033203125,2.0,31.0,25.0,185.0,952.0,-144.0,16,463,1083,-9.367936335731809,441.92396394540776,1060.9586942691853,-29.86106444402121,-6.6983521251394285,-2.9621740642176473,
67,5.86299991607666,0.08299994468688965,12.048200800282656,11.427596957025772,102268.25,191.0,986.0,-170.0,5.75,-48.1875,2.25,-3.6875,6.1875,-3.625,276.5625,10.6875,-98.4375,-0.64947509765625,-0.387939453125,-0.43511962890625,-0.48828125,9.0,33.0,-28.0,182.0,952.0,-141.0,24,456,1091,-2.6943490685854465,444.7391711563262,1066.9669554153484,-21.37059908396683,-3.5708790150943983,2.8398460684392663,
68,5.947999954223633,0.08500003814697266,11.764700602497504,11.432414344878008,102268.25,153.0,913.0,-130.0,6.1875,-48.5625,2.25,-7.875,8.0625,-1.5625,276.1875,10.625,-97.6875,-0.643798828125,-0.3890380859375,-0.43994140625,-0.49053955078125,-27.0,-41.0,-1.0,181.0,955.0,-129.0,15,445,1091,0.8445207451316428,444.791336925061,1071.7735643322787,-16.519264679622367,-3.248665302815628,6.97539816238495,
69,6.0350000858306885,0.08700013160705566,11.494235485948398,11.433305554046648,102268.25,141.0,912.0,-132.0,5.75,-48.1875,0.6875,-2.3125,3.6875,1.25,275.875,10.625,-97.375,-0.64111328125,-0.38995361328125,-0.44281005859375,-0.49072265625,-41.0,-45.0,7.0,181.0,955.0,-123.0,17,468,1090,4.075616596105315,449.43306954004885,1075.418851465823,-12.387580101956756,1.109675841440943,9.66457623584926,
70,6.120999813079834,0.08599972724914551,11.627943855018865,11.43604021199584,102268.25,177.0,967.0,-136.0,5.375,-48.5625,0.6875,6.0,-3.5,6.1875,275.6875,10.8125,-97.8125,-0.64410400390625,-0.38995361328125,-0.441650390625,-0.48785400390625,-7.0,13.0,-5.0,184.0,954.0,-131.0,-4,467,1077,2.460493276884252,452.94645563203915,1075.7350811726585,-12.879839806268322,4.1699469304873755,9.20354066396947,
71,6.20799994468689,0.08700013160705566,11.494235485948398,11.436855772005165,102266.25,226.0,1020.0,-138.0,5.0625,-49.6875,1.5,-0.9375,0.4375,1.9375,275.25,11.25,-98.125,-0.647216796875,-0.3880615234375,-0.44207763671875,-0.48480224609375,37.0,63.0,-1.0,192.0,951.0,-136.0,-20,464,1085,-2.031605378492598,455.15716450563133,1077.588064938127,-15.863851603553714,5.805462462403556,10.134862677742746,
72,6.299000024795532,0.09100008010864258,10.989001315231004,11.430385730525083,102266.25,195.0,932.0,-135.0,5.0625,-48.5625,1.5,-10.625,3.0625,-2.6875,275.1875,11.25,-97.375,-0.6429443359375,-0.38714599609375,-0.44561767578125,-0.488037109375,8.0,1.0,6.0,191.0,953.0,-124.0,35,480,1107,5.374715697205922,460.12573160450506,1083.4704519505017,-8.37545348285577,9.562610312392428,14.331878264964166,
73,6.379999876022339,0.08099985122680664,12.345701687771165,11.442006491936239,102266.25,202.0,928.0,-123.0,5.375,-48.5625,0.6875,-8.0,2.75,-1.5625,275.25,11.125,-96.6875,-0.6390380859375,-0.38616943359375,-0.44830322265625,-0.49151611328125,12.0,-26.0,-10.0,189.0,955.0,-112.0,35,477,1106,11.299772557764737,463.5005852836041,1087.9763615604013,-2.0980717594432123,12.034489449014803,17.51172706100484,
74,6.4649999141693115,0.08500003814697266,11.764700602497504,11.446249185218786,102266.25,154.0,930.0,-103.0,5.375,-48.5625,0.25,0.625,3.75,1.75,275.125,11.0625,-96.1875,-0.6358642578125,-0.3861083984375,-0.450927734375,-0.49322509765625,-34.0,-26.0,1.0,188.0,956.0,-104.0,-27,462,1154,3.63981804621179,463.20046822688334,1101.181089248321,-8.875534736168207,10.835963137952938,28.125248496820642,
75,6.550999879837036,0.08599996566772461,11.627911618751906,11.448634006365713,102267.0,202.0,973.0,-137.0,6.1875,-49.6875,0.6875,5.625,-1.0625,5.6875,274.5625,11.4375,-96.5625,-0.6385498046875,-0.38568115234375,-0.45166015625,-0.4893798828125,2.0,21.0,-28.0,195.0,954.0,-110.0,14,429,1124,5.711854436969432,456.36037458150673,1105.7448713986569,-6.336922447745554,3.8773216396537746,30.045783035398788,
76,6.631999969482422,0.08100008964538574,12.345665348988488,11.459589920042058,102267.0,191.0,982.0,-138.0,4.6875,-49.25,0.25,-0.5,-2.375,3.125,274.5,11.625,-96.9375,-0.641357421875,-0.38494873046875,-0.4503173828125,-0.487548828125,-6.0,28.0,-21.0,198.0,953.0,-116.0,-30,454,1099,-1.430516450424454,455.8882996652054,1104.3958971189256,-12.638633118876607,3.1300057953047262,26.449900894982573,
77,6.7209999561309814,0.08899998664855957,11.235956741755135,11.45662855268428,102267.0,213.0,967.0,-117.0,4.6875,-48.875,0.6875,0.875,-5.375,0.5625,274.8125,11.75,-96.9375,-0.6429443359375,-0.382080078125,-0.44903564453125,-0.48883056640625,13.0,14.0,0.0,199.0,952.0,-116.0,51,484,1110,9.055586839660437,461.51063973216435,1105.5167176951404,-2.5932103410364142,7.753267822109888,25.38295737230953,
78,6.807999849319458,0.08699989318847656,11.494266985289281,11.457109536774894,102267.0,183.0,921.0,-95.0,3.5625,-48.5625,0.6875,-2.3125,-2.625,0.1875,275.125,11.75,-97.0,-0.64453125,-0.38006591796875,-0.4473876953125,-0.4898681640625,-16.0,-36.0,43.0,200.0,952.0,-117.0,43,443,1093,15.844469471728349,457.8085117857315,1103.0133741561124,3.615025527091604,3.8796661784974567,21.212864032143184,
79,6.893999814987183,0.08599996566772461,11.627911618751906,11.459240226299148,102267.0,162.0,937.0,-164.0,4.6875,-47.875,-0.0625,7.0,-8.4375,-2.6875,275.5625,11.6875,-97.5,-0.6473388671875,-0.38006591796875,-0.44439697265625,-0.4888916015625,-27.0,-13.0,-21.0,199.0,952.0,-124.0,-3,471,1092,12.075575577382681,460.44680942858525,1100.81069932489,-0.03780755149514281,5.943129552513129,17.607310365470855,
80,6.980000019073486,0.08600020408630371,11.627879382663684,11.461318020256835,102262.0,228.0,970.0,-140.0,6.1875,-48.5625,0.6875,1.625,-10.5625,4.1875,276.0625,11.8125,-98.0625,-0.65325927734375,-0.37689208984375,-0.4390869140625,-0.48828125,26.0,20.0,-5.0,201.0,950.0,-134.0,-17,468,1049,6.2604604619061455,461.95744754286824,1090.448559459912,-5.241440571278065,6.838053446317372,6.973839605117989,
81,7.067999839782715,0.08799982070922852,11.363659515900926,11.460102127349526,102262.0,239.0,966.0,-120.0,5.0625,-49.25,1.5,1.4375,-5.5625,2.625,276.5625,12.0625,-98.25,-0.65740966796875,-0.37200927734375,-0.43603515625,-0.4891357421875,34.0,18.0,17.0,205.0,948.0,-138.0,20,454,1078,9.008368369524916,460.36595803429464,1087.9588475679298,-2.4334253293608326,4.918967173761899,4.258351611569303,
82,7.1519999504089355,0.0840001106262207,11.904746226463292,11.465324464286583,102262.0,202.0,982.0,-140.0,3.5625,-48.875,0.25,2.0,1.6875,-7.0625,276.5625,11.9375,-98.3125,-0.65679931640625,-0.37353515625,-0.43572998046875,-0.48907470703125,0.0,32.0,-1.0,203.0,949.0,-139.0,-43,453,1039,-1.3933053043800658,458.89276642743573,1078.1670780543438,-11.780906556210912,3.1897828402411914,-5.045318362400561,
83,7.236999750137329,0.08499979972839355,11.76473360167174,11.468841075809765,102262.0,166.0,961.0,-132.0,5.0625,-49.25,1.0625,-2.9375,-3.5625,-0.8125,277.125,11.5,-98.375,-0.656494140625,-0.3751220703125,-0.432861328125,-0.4908447265625,-29.0,10.0,8.0,196.0,950.0,-140.0,-26,426,1049,-6.314644243504053,452.3142131419486,1072.333662443475,-15.331941353221893,-3.015239808845596,-9.941229558522949,
84,7.319999933242798,0.08300018310546875,12.048166191745565,11.475409940719434,102263.25,222.0,952.0,-79.0,4.6875,-49.6875,0.25,-3.75,-1.4375,2.3125,277.4375,11.5625,-98.0625,-0.6561279296875,-0.37176513671875,-0.43310546875,-0.49371337890625,25.0,0.0,55.0,197.0,951.0,-134.0,0,424,1059,-5.051715394803242,446.6513705135589,1069.66692995478,-12.97975166639652,-8.036535264614077,-11.649706070896533,
85,7.4049999713897705,0.08500003814697266,11.764700602497504,11.478730631790564,102263.25,213.0,956.0,-115.0,5.0625,-49.25,1.0625,-1.9375,5.625,-2.125,277.125,11.6875,-97.6875,-0.65411376953125,-0.371337890625,-0.43585205078125,-0.49420166015625,14.0,5.0,13.0,199.0,951.0,-129.0,-14,453,1046,-6.8413723158425945,447.92109641084716,1064.9335439638241,-13.601528683089581,-6.267500282018592,-15.040567617950682,
86,7.488999843597412,0.0839998722076416,11.904780015951362,11.48350938657372,102263.25,196.0,958.0,-118.0,5.375,-49.25,0.6875,-0.125,6.1875,-2.5625,276.75,11.625,-97.4375,-0.6510009765625,-0.3740234375,-0.4385986328125,-0.49383544921875,-4.0,5.0,-7.0,197.0,952.0,-124.0,15,427,1066,-2.4730978526740763,443.73687712867775,1065.1468351710594,-8.549953291426103,-9.620442937443272,-13.68692667395514,
87,7.572000026702881,0.08300018310546875,12.048166191745565,11.489698850131001,102263.25,212.0,960.0,-121.0,5.0625,-48.875,1.0625,-0.625,7.8125,-2.8125,276.1875,11.5,-97.25,-0.6475830078125,-0.37762451171875,-0.44189453125,-0.49273681640625,19.0,10.0,5.0,196.0,953.0,-121.0,-31,453,1044,-8.178478282139261,445.58950170294224,1060.9174681368474,-13.184538501288646,-7.160972716613051,-16.556654322444388,
88,7.656999826431274,0.08499979972839355,11.76473360167174,11.492751990960208,102262.75,163.0,928.0,-117.0,5.0625,-48.5625,0.25,0.0625,6.8125,-5.1875,275.9375,11.1875,-97.125,-0.64410400390625,-0.3824462890625,-0.44354248046875,-0.4920654296875,-24.0,-17.0,-15.0,191.0,954.0,-119.0,-27,450,1047,-11.94278262571141,446.4716013623538,1058.133974509478,-15.579353947115564,-5.81049741969497,-17.803315637228426,
89,7.740000009536743,0.08300018310546875,12.048166191745565,11.49870799616793,102262.75,166.0,941.0,-127.0,5.375,-48.5625,1.0625,8.1875,4.5,-2.9375,275.5625,11.0,-97.4375,-0.642822265625,-0.3878173828125,-0.44384765625,-0.48931884765625,-17.0,0.0,-11.0,187.0,954.0,-124.0,-22,462,1048,-13.954226100569128,449.57728108988306,1056.1071796075826,-16.24577749900754,-2.4819227152166685,-18.312735792887576,
90,7.823999881744385,0.0839998722076416,11.904780015951362,11.503067658525351,102262.75,177.0,978.0,-155.0,6.0625,-49.6875,0.25,2.5,2.875,1.625,275.375,10.875,-97.9375,-0.64422607421875,-0.39117431640625,-0.4422607421875,-0.4862060546875,-8.0,24.0,-21.0,185.0,953.0,-133.0,-6,503,1068,-12.363380880455303,460.26182487190647,1058.4857436860661,-13.536575627947984,7.5033653676308205,-14.722301414504521,
91,7.9079999923706055,0.0840001106262207,11.904746226463292,11.507334356069043,102262.75,190.0,969.0,-162.0,5.75,-48.5625,1.875,-3.625,1.75,0.0625,275.0625,11.0625,-97.875,-0.64385986328125,-0.39080810546875,-0.4439697265625,-0.48541259765625,1.0,8.0,-20.0,188.0,953.0,-131.0,-10,486,1070,-11.890704704364243,465.4094598975252,1060.788594948853,-12.060973380474236,11.644265460099511,-11.47773999476857,
92,7.991999864578247,0.0839998722076416,11.904780015951362,11.511511706570207,102262.75,175.0,949.0,-130.0,5.75,-48.1875,0.6875,0.8125,0.0,-0.5,275.0625,11.0625,-97.6875,-0.64312744140625,-0.390380859375,-0.4447021484375,-0.4859619140625,-12.0,-1.0,-6.0,188.0,953.0,-129.0,-25,484,1063,-14.512563763491395,469.1275679180202,1061.2308759590824,-13.535652890721543,14.155927890256208,-10.188529139006324,
93,8.075999975204468,0.0840001106262207,11.904746226463292,11.515601818416974,102262.75,176.0,958.0,-137.0,5.75,-48.5625,1.5,1.5,-1.1875,-1.125,275.125,11.0,-97.875,-0.64398193359375,-0.39105224609375,-0.443603515625,-0.4853515625,-11.0,5.0,-5.0,188.0,953.0,-132.0,-21,497,1062,-15.810051010793117,474.7020543344162,1061.384700767266,-13.68276936179834,18.175860594721176,-9.263006506836332,
94,8.160999774932861,0.08499979972839355,11.76473360167174,11.518196617126279,102262.75,200.0,948.0,-136.0,6.0625,-48.1875,2.25,0.0625,-1.5,2.0,275.1875,11.125,-98.0,-0.64520263671875,-0.39019775390625,-0.44293212890625,-0.48504638671875,14.0,-5.0,4.0,189.0,952.0,-134.0,4,491,1068,-11.848040808634494,477.96164346753295,1062.7077606138128,-9.04007254016623,19.729130559683416,-7.351215615015656,
95,8.245999813079834,0.08500003814697266,11.764700602497504,11.520737588340793,102262.75,193.0,951.0,-137.0,6.1875,-49.25,0.6875,0.6875,-0.3125,2.1875,275.0625,11.25,-98.125,-0.646484375,-0.3892822265625,-0.44287109375,-0.484130859375,0.0,-3.0,4.0,191.0,952.0,-136.0,-56,456,1057,-20.678432646907595,473.5693147740264,1061.5662084910502,-16.343279500435017,14.231056240519292,-7.819283471535819,
96,8.335000038146973,0.08900022506713867,11.23592664227124,11.51769640799457,102262.75,199.0,973.0,-155.0,5.0625,-48.875,2.25,3.0,-0.8125,0.875,274.875,11.375,-98.3125,-0.647705078125,-0.38916015625,-0.44281005859375,-0.48260498046875,4.0,22.0,-16.0,194.0,951.0,-139.0,11,476,1081,-14.342746117526076,474.0554518192211,1065.4529667928402,-9.603424180314645,13.555854323697472,-3.8545061452809235,
97,8.417999744415283,0.08299970626831055,12.048235409018574,11.522927410915198,102265.0,193.0,974.0,-148.0,4.6875,-47.75,2.75,-1.5625,-0.4375,-0.1875,274.875,11.4375,-98.3125,-0.648193359375,-0.388671875,-0.4427490234375,-0.482421875,-1.0,23.0,-8.0,195.0,950.0,-139.0,2,488,1074,-11.074196894020861,476.84436145537694,1067.1623734342722,-5.8316812306422285,15.099364407750977,-1.97186848291443,
98,8.501999855041504,0.0840001106262207,11.904746226463292,11.526699796623507,102265.0,198.0,953.0,-136.0,5.375,-48.5625,2.25,-3.125,-0.9375,0.125,275.0625,11.4375,-98.1875,-0.64801025390625,-0.38751220703125,-0.44244384765625,-0.48388671875,4.0,2.0,0.0,194.0,951.0,-137.0,-23,484,1062,-13.459357515216691,478.2754891643016,1066.1298987474179,-7.569036132543899,15.24857868716954,-2.7664684929131362,
99,8.584999799728394,0.08299994468688965,12.048200800282656,11.531741678448507,102265.0,193.0,948.0,-126.0,5.75,-48.875,1.875,0.6875,-1.5625,1.125,275.25,11.375,-98.0625,-0.6475830078125,-0.3868408203125,-0.44232177734375,-0.485107421875,-9.0,-4.0,20.0,193.0,951.0,-135.0,-33,463,1047,-17.367486012173355,475.2203913314413,1062.3039189979345,-10.611835950455355,11.2401888523372,-6.102855684487338,
100,8.664999961853027,0.08000016212463379,12.499974668077307,11.54068095098004,102265.0,189.0,969.0,-134.0,5.0625,-48.5625,1.5,-0.0625,1.4375,-2.125,275.1875,11.375,-98.0625,-0.6475830078125,-0.3870849609375,-0.44256591796875,-0.4847412109375,-4.0,18.0,1.0,194.0,951.0,-135.0,-23,487,1052,-18.493988809738685,477.57631306515304,1060.2431351983478,-10.878981327617826,12.642264384042688,-7.616436184205602,
101,8.747999906539917,0.08299994468688965,12.048200800282656,11.545496236744746,102265.0,204.0,966.0,-138.0,4.6875,-47.75,1.5,-1.6875,2.5,0.1875,275.125,11.375,-97.9375,-0.64654541015625,-0.387451171875,-0.44342041015625,-0.4849853515625,10.0,14.0,-4.0,193.0,951.0,-133.0,-37,480,1043,-22.19519104779095,478.06105045212246,1056.7945081586781,-13.474947503412466,12.118506456239512,-10.229301429582037,
102,8.832000017166138,0.0840001106262207,11.904746226463292,11.548913021031451,102273.5,192.0,948.0,-117.0,5.375,-48.5625,1.875,-1.125,1.875,0.0,275.0625,11.3125,-97.8125,-0.64520263671875,-0.3880615234375,-0.4442138671875,-0.485595703125,0.0,-3.0,15.0,192.0,952.0,-131.0,-32,453,1033,-24.156152838232764,473.048840361698,1052.0356065269425,-14.234922486224775,6.5908615937720025,-13.803965970177853,
103,8.91599988937378,0.0839998722076416,11.904780015951362,11.55226573328662,102273.5,183.0,953.0,-126.0,5.375,-48.5625,1.875,3.875,4.1875,-1.6875,274.75,11.3125,-97.8125,-0.6441650390625,-0.38970947265625,-0.445556640625,-0.48443603515625,-9.0,0.0,4.0,192.0,952.0,-130.0,-35,472,1045,-26.324922270586214,472.83907228935846,1050.628485221554,-15.126875125592008,5.891077558872468,-14.030923749397605,
104,9.0,0.0840001106262207,11.904746226463292,11.555555555555555,102273.5,189.0,964.0,-142.0,5.75,-48.875,1.5,2.8125,5.3125,-0.5,274.25,11.3125,-98.0,-0.64349365234375,-0.392578125,-0.4468994140625,-0.481689453125,-2.0,11.0,-13.0,193.0,952.0,-133.0,-35,456,1040,-28.059937816468974,469.47125783148675,1048.5027881772432,-15.55253456341955,2.350305399513485,-14.899095678442412,
105,9.081999778747559,0.0819997787475586,12.195154856192504,11.561330385154434,102273.5,184.0,961.0,-139.0,5.375,-47.5,1.5,0.8125,3.0,-0.9375,273.875,11.3125,-98.0625,-0.6424560546875,-0.3953857421875,-0.44805908203125,-0.479736328125,-7.0,9.0,-3.0,192.0,951.0,-135.0,-5,446,1045,-23.44795025317518,464.7770062651894,1047.8022305417946,-10.024208907287711,-2.2386967246879133,-14.4097077926511,
106,9.16599988937378,0.0840001106262207,11.904746226463292,11.564477556113292,102273.5,187.0,953.0,-135.0,5.375,-48.5625,1.875,0.3125,-0.1875,-1.125,273.875,11.25,-98.125,-0.64239501953125,-0.3963623046875,-0.44769287109375,-0.47930908203125,-4.0,1.0,0.0,191.0,952.0,-136.0,-11,470,1057,-20.958360202540142,465.82160501215157,1049.6417844334358,-6.970223613849731,-1.1087694865748656,-11.613904779375401,
107,9.250999927520752,0.08500003814697266,11.764700602497504,11.566317245521347,102270.0,198.0,964.0,-145.0,5.375,-48.5625,2.75,2.375,-0.5,-0.1875,273.875,11.1875,-98.3125,-0.64288330078125,-0.39703369140625,-0.44708251953125,-0.478759765625,7.0,12.0,-6.0,190.0,951.0,-139.0,-49,485,1040,-26.566688162032115,469.65728400972125,1047.7134275467488,-11.51399944353429,2.451278119945923,-12.466497801214498,
108,9.33299994468689,0.0820000171661377,12.195119398254892,11.571841920076563,102270.0,179.0,963.0,-145.0,6.0625,-47.75,3.0625,1.3125,2.3125,-2.0,273.8125,11.125,-98.375,-0.6424560546875,-0.39874267578125,-0.447021484375,-0.4779052734375,-17.0,8.0,-5.0,189.0,951.0,-140.0,-58,467,1047,-32.85335052962569,469.125827207777,1047.5707420373992,-16.53074954695975,1.763478909796253,-11.640562615885736,
109,9.413999795913696,0.08099985122680664,12.345701687771165,11.578500357235324,102270.0,189.0,952.0,-143.0,5.75,-48.5625,2.75,-1.875,0.9375,1.5,273.75,11.125,-98.3125,-0.6419677734375,-0.3988037109375,-0.4473876953125,-0.4781494140625,1.0,0.0,6.0,189.0,952.0,-139.0,-65,492,1032,-39.282680423700555,473.70066176622163,1044.4565936299196,-21.369725179031708,5.976615823910667,-13.704608032727283,
110,9.500999927520752,0.08700013160705566,11.494235485948398,11.577728748462802,102270.0,202.0,964.0,-147.0,6.0625,-48.875,2.25,2.125,0.25,0.5625,273.6875,11.1875,-98.3125,-0.642333984375,-0.39849853515625,-0.4476318359375,-0.477783203125,15.0,14.0,-7.0,190.0,951.0,-139.0,-37,489,1045,-38.82614433896045,476.76052941297735,1044.5652749039357,-19.32019627877692,8.224571030618211,-12.553164186160298,
111,9.587999820709229,0.08699989318847656,11.494266985289281,11.576971430501057,102266.75,177.0,964.0,-146.0,5.75,-48.875,2.75,-0.8125,1.375,-0.3125,273.6875,11.125,-98.375,-0.6422119140625,-0.39935302734375,-0.4473876953125,-0.4774169921875,-15.0,14.0,0.0,189.0,951.0,-141.0,-37,474,1050,-38.460915471168356,476.20842353038194,1045.6522199231486,-17.50929223029153,7.102633025020674,-10.624560552640403,
112,9.669999837875366,0.0820000171661377,12.195119398254892,11.582213224173948,102266.75,199.0,964.0,-144.0,6.1875,-49.25,1.5,-1.75,-0.125,-1.875,273.6875,11.125,-98.3125,-0.64190673828125,-0.39898681640625,-0.44775390625,-0.477783203125,9.0,13.0,-4.0,189.0,951.0,-139.0,-40,461,1046,-38.768732376934686,473.1667388243056,1045.721775938519,-16.45012425029296,3.6995147535856665,-9.741154608839327,
113,9.751999855041504,0.0820000171661377,12.195119398254892,11.587366866251772,102266.75,189.0,957.0,-137.0,5.75,-47.75,2.75,-0.625,0.625,0.0625,273.75,11.0625,-98.1875,-0.64080810546875,-0.3992919921875,-0.44818115234375,-0.4786376953125,5.0,3.0,2.0,188.0,952.0,-137.0,-27,451,1058,-36.41498590154775,468.7333910594445,1048.1774207508151,-12.973239796876875,-0.7483686925784161,-6.685175814163068,
114,9.833999872207642,0.0820000171661377,12.195119398254892,11.592434561869489,102266.75,174.0,961.0,-154.0,5.75,-48.5625,1.875,-0.3125,2.625,-0.4375,273.5,11.0625,-98.25,-0.640380859375,-0.40057373046875,-0.44879150390625,-0.4775390625,-22.0,-6.0,7.0,188.0,952.0,-138.0,-38,491,1044,-36.7319887212382,473.1867128475556,1047.3419366006522,-12.271973649666913,3.4910325979647254,-6.954957106899719,
115,9.928999900817871,0.09500002861022949,10.526312619366108,11.58223397610541,102268.25,188.0,970.0,-142.0,6.0625,-47.375,2.75,-0.875,1.3125,-1.6875,273.4375,11.0625,-98.1875,-0.6400146484375,-0.40081787109375,-0.44921875,-0.47735595703125,0.0,18.0,-4.0,188.0,952.0,-137.0,-33,472,1051,-35.985590976990565,472.9493702780445,1048.0735492805218,-10.722056847078358,3.0298507474105167,-5.826434258254259,
116,10.01199984550476,0.08299994468688965,12.048200800282656,11.586096862764363,102268.25,179.0,956.0,-139.0,6.0625,-49.6875,2.25,-0.875,-0.6875,-1.0625,273.5625,10.9375,-98.0625,-0.63861083984375,-0.40167236328125,-0.4493408203125,-0.47845458984375,-14.0,-2.0,-1.0,185.0,953.0,-135.0,-52,485,1032,-39.18847278159245,475.3594962224356,1044.8588394244175,-12.867808630202296,5.032453702423508,-8.36012199966506,
117,10.095999956130981,0.0840001106262207,11.904746226463292,11.588748069372722,102268.25,188.0,946.0,-124.0,6.5,-48.5625,2.25,0.125,-0.75,-0.8125,273.6875,10.8125,-98.0,-0.6380615234375,-0.4017333984375,-0.44915771484375,-0.47930908203125,0.0,-9.0,0.0,184.0,953.0,-134.0,-56,487,1036,-42.550778225273966,477.6875969779485,1043.087071539534,-14.959096629978824,6.779044316006305,-9.340511027904501,
118,10.178999900817871,0.08299994468688965,12.048200800282656,11.592494464069976,102268.25,170.0,958.0,-141.0,5.75,-48.1875,1.5,0.875,0.75,-0.1875,273.75,10.75,-98.0625,-0.63818359375,-0.4022216796875,-0.44879150390625,-0.4791259765625,-6.0,4.0,-8.0,183.0,953.0,-135.0,-25,476,1043,-39.04062258021917,477.3500775823588,1043.0696572316274,-10.550834565476784,5.943937291865597,-8.637447131797035,
119,10.26199984550476,0.08299994468688965,12.048200800282656,11.596180256436819,102268.25,178.0,964.0,-136.0,6.875,-48.875,1.875,-1.25,-0.75,2.6875,273.6875,10.8125,-98.0,-0.63818359375,-0.40167236328125,-0.44903564453125,-0.4793701171875,-6.0,11.0,-1.0,184.0,953.0,-134.0,-31,453,1039,-37.43249806417534,472.48006206588707,1042.255725785302,-8.246544758686259,0.9682849074853035,-8.727457234379063,
120,10.346999883651733,0.08500003814697266,11.764700602497504,11.597564641863007,102265.75,168.0,972.0,-163.0,6.0625,-48.875,1.5,-0.5625,-1.375,-2.0,273.875,10.8125,-98.0,-0.6385498046875,-0.401123046875,-0.4483642578125,-0.47991943359375,-15.0,18.0,-28.0,183.0,953.0,-134.0,-53,457,1029,-40.545998451340274,469.3840496527097,1039.6045806282416,-10.43202460308559,-1.9108947812949457,-10.457067562378342,
121,10.430999994277954,0.0840001106262207,11.904746226463292,11.600038353597542,102265.75,187.0,955.0,-124.0,6.1875,-48.875,2.75,-3.0,-2.875,1.25,274.1875,10.6875,-97.875,-0.638427734375,-0.39984130859375,-0.44757080078125,-0.48187255859375,5.0,1.0,7.0,182.0,954.0,-132.0,-62,477,1036,-44.83679876107222,470.9072397221678,1038.8836645025933,-13.561987145923743,-0.36750015830451455,-10.31271227160861,
122,10.516000032424927,0.08500003814697266,11.764700602497504,11.601369306183573,102265.75,179.0,963.0,-139.0,6.1875,-48.875,1.5,5.25,-4.875,-0.0625,274.5625,10.625,-97.9375,-0.6395263671875,-0.399169921875,-0.44561767578125,-0.4827880859375,-2.0,9.0,-5.0,181.0,954.0,-134.0,-66,474,1029,-49.06943900885778,471.52579177773424,1036.9069316020748,-16.35198652173002,0.22113249392643525,-11.309320074114185,
123,10.601999759674072,0.08599972724914551,11.627943855018865,11.601584869662483,102265.75,166.0,958.0,-138.0,6.5,-48.1875,2.25,1.125,-5.875,-1.0625,275.0,10.4375,-98.25,-0.64154052734375,-0.39935302734375,-0.4422607421875,-0.4830322265625,-5.0,15.0,-3.0,178.0,954.0,-139.0,-85,468,1016,-56.25555120708623,470.8206334221874,1032.7255452816598,-21.52698116617554,-0.42725942417997576,-14.18231368189193,
124,10.684000015258789,0.0820002555847168,12.195083940523473,11.606140005887717,102269.0,210.0,953.0,-108.0,6.875,-48.1875,2.25,-3.375,-2.6875,0.625,275.375,10.5,-98.1875,-0.64263916015625,-0.3966064453125,-0.44110107421875,-0.48492431640625,31.0,-1.0,29.0,178.0,954.0,-137.0,-67,481,1018,-58.40444096566898,472.85650673774995,1029.7804362253278,-21.88725722221331,1.5173682915997588,-15.855796144395581,
125,10.766999959945679,0.08299994468688965,12.048200800282656,11.609547735210603,102269.0,196.0,947.0,-111.0,6.0625,-48.5625,2.25,-0.8125,3.0,1.5625,275.1875,10.6875,-97.875,-0.64154052734375,-0.39471435546875,-0.44354248046875,-0.4857177734375,14.0,-7.0,20.0,182.0,954.0,-132.0,-65,443,1026,-59.723552772535186,466.8852053902,1029.0243489802622,-21.42569355849326,-4.139113767773014,-15.336330644510504,
126,10.851999998092651,0.08500003814697266,11.764700602497504,11.610762995037392,102269.0,159.0,965.0,-157.0,5.75,-49.25,2.75,2.0,4.5625,-1.25,274.6875,10.6875,-97.8125,-0.63995361328125,-0.39678955078125,-0.44580078125,-0.4840087890625,-23.0,10.0,-26.0,182.0,954.0,-131.0,-62,464,1023,-60.17884221802815,466.30816431216005,1027.8194791842097,-20.18835364354432,-4.343133102577629,-15.246902980880478,
127,10.936999797821045,0.08499979972839355,11.76473360167174,11.611959618514572,102269.0,161.0,968.0,-147.0,6.875,-48.875,0.6875,-0.625,0.8125,0.625,274.5625,10.6875,-97.875,-0.63958740234375,-0.3983154296875,-0.4459228515625,-0.48309326171875,-20.0,14.0,-15.0,181.0,954.0,-132.0,-37,449,1029,-55.543073774422524,462.84653144972805,1028.055583347368,-14.43437969308105,-7.1445513645836245,-13.859008352553948,
128,11.019999980926514,0.08300018310546875,12.048166191745565,11.615245029178151,102269.0,186.0,967.0,-138.0,5.375,-49.25,1.0625,0.1875,-1.75,1.8125,274.75,10.625,-98.0,-0.640380859375,-0.39813232421875,-0.44482421875,-0.48333740234375,4.0,13.0,-4.0,181.0,954.0,-134.0,-49,461,1031,-54.23445901953802,462.47722515978245,1028.6444666778943,-12.108919037031757,-6.937029603393644,-12.245552463410016,
129,11.104999780654907,0.08499979972839355,11.76473360167174,11.61638924340369,102266.75,186.0,953.0,-150.0,6.5,-49.25,0.6875,-2.9375,-0.3125,-0.1875,274.8125,10.625,-97.875,-0.6402587890625,-0.3973388671875,-0.4449462890625,-0.4840087890625,9.0,-4.0,-1.0,181.0,954.0,-132.0,-75,487,1011,-58.38756721563042,467.381780127826,1025.1155733423154,-14.938768560218195,-1.9599180611306517,-14.4994146538661,
130,11.18999981880188,0.08500003814697266,11.764700602497504,11.617515827084185,102266.75,187.0,956.0,-124.0,7.25,-49.25,1.875,0.125,0.875,-0.5,274.8125,10.6875,-97.8125,-0.6400146484375,-0.396484375,-0.4451904296875,-0.4847412109375,2.0,0.0,-5.0,181.0,954.0,-131.0,-61,454,1022,-58.91005377250434,464.70542410226085,1024.4924586738525,-14.26179452018616,-4.233466976101336,-13.947428054211183,
131,11.27999997138977,0.09000015258789062,11.111092273131861,11.61347520676101,102266.75,156.0,957.0,-142.0,6.5,-48.5625,2.75,-0.5625,-0.625,0.3125,274.875,10.625,-97.8125,-0.639892578125,-0.39703369140625,-0.4449462890625,-0.4847412109375,-18.0,8.0,-11.0,181.0,954.0,-131.0,-81,458,1017,-63.32804301800347,463.3643392818087,1022.993966939082,-16.94346517710209,-5.054860642274315,-14.155516849075063,
132,11.368000030517578,0.08800005912780762,11.363628728335758,11.611541137020046,102266.75,171.0,946.0,-125.0,5.75,-49.6875,1.5,-1.0625,-1.8125,0.8125,274.875,10.6875,-97.6875,-0.6400146484375,-0.3955078125,-0.44537353515625,-0.48541259765625,-10.0,-8.0,3.0,182.0,954.0,-129.0,-55,470,1022,-61.66243441440278,464.691471425447,1022.7951735512656,-14.181411809556153,-3.5043965273807807,-13.2394861491614,
133,11.455999851226807,0.08799982070922852,11.363659515900926,11.609637022276779,102268.75,197.0,962.0,-134.0,6.5,-49.6875,2.25,1.5,-1.4375,1.4375,274.9375,10.8125,-97.8125,-0.64154052734375,-0.39422607421875,-0.44476318359375,-0.4849853515625,-5.0,2.0,-4.0,184.0,954.0,-131.0,-82,482,1008,-65.72994753152223,468.15317714035757,1019.8361388410126,-16.648524328954608,-0.20555932295855994,-14.809206362290674,
134,11.539000034332275,0.08300018310546875,12.048166191745565,11.612791368516028,102268.75,202.0,966.0,-131.0,5.75,-49.25,0.6875,0.75,-1.75,3.0,274.9375,10.875,-97.9375,-0.6429443359375,-0.3935546875,-0.4439697265625,-0.484375,16.0,12.0,2.0,185.0,953.0,-133.0,-100,463,1011,-72.58395802521778,467.1225417122861,1018.0689110728101,-21.725113783742035,-1.1458608079697252,-15.308370218842061,
135,11.627000093460083,0.08800005912780762,11.363628728335758,11.610905557310037,102268.75,189.0,967.0,-134.0,5.75,-49.25,1.875,0.25,0.0,0.875,274.875,11.0,-98.0,-0.64361572265625,-0.39263916015625,-0.44427490234375,-0.48394775390625,0.0,14.0,0.0,188.0,953.0,-134.0,-79,447,1021,-73.86716642017423,463.09803336982884,1018.6551288582482,-21.175086613559287,-4.579071959324654,-13.616685494380988,
136,11.710999965667725,0.0839998722076416,11.904780015951362,11.613013440244314,102268.75,190.0,957.0,-140.0,6.0625,-49.6875,1.875,-0.5,-0.1875,1.875,274.6875,11.1875,-97.9375,-0.6436767578125,-0.39178466796875,-0.44525146484375,-0.48370361328125,0.0,5.0,-7.0,190.0,952.0,-133.0,-69,457,1034,-72.89373313613939,461.87842669586314,1021.7241030865987,-18.652289743103953,-5.3444579037418345,-9.754970055452121,
137,11.796000003814697,0.08500003814697266,11.764700602497504,11.614106473015912,102268.75,181.0,961.0,-142.0,6.1875,-49.25,1.5,-0.6875,-0.25,0.5,274.6875,11.1875,-97.9375,-0.6439208984375,-0.3914794921875,-0.4453125,-0.4835205078125,-9.0,8.0,-9.0,191.0,952.0,-133.0,-83,443,1009,-74.91498650891151,458.10274135669056,1019.1792824692791,-19.047080372363776,-8.353259829168273,-11.309144415219063,
138,11.877999782562256,0.0819997787475586,12.195154856192504,11.618117740883761,102269.0,214.0,974.0,-125.0,4.25,-48.5625,2.25,2.3125,-2.375,2.25,274.8125,11.25,-98.0625,-0.645263671875,-0.39068603515625,-0.44403076171875,-0.4833984375,16.0,17.0,9.0,191.0,952.0,-135.0,-137,415,1012,-87.33198920712921,449.4821930853525,1017.7434259754233,-29.240355031790195,-15.804985748119588,-11.786648201872955,
139,11.961999893188477,0.0840001106262207,11.904746226463292,11.620130516733308,102269.0,201.0,973.0,-133.0,5.0625,-48.875,2.25,0.8125,0.5,-3.375,274.875,11.1875,-98.1875,-0.645751953125,-0.3916015625,-0.44317626953125,-0.48297119140625,11.0,21.0,4.0,190.0,952.0,-137.0,-68,432,1024,-83.46559136570338,445.98575446828204,1018.9947407803386,-23.444654340662908,-17.79306635682689,-9.732039229779895,
140,12.04699993133545,0.08500003814697266,11.764700602497504,11.621150560136224,102269.0,205.0,945.0,-134.0,5.375,-49.6875,1.875,-2.25,2.1875,-0.5625,274.9375,11.0625,-98.0625,-0.64422607421875,-0.392333984375,-0.44366455078125,-0.48394775390625,17.0,-7.0,0.0,188.0,952.0,-135.0,-38,463,1031,-74.3724730925627,449.3886035746257,1021.3957926242709,-13.402124276383729,-13.340420675617324,-6.807602691316566,
141,12.13100004196167,0.0840001106262207,11.904746226463292,11.623114294969476,102269.0,167.0,938.0,-120.0,5.75,-47.875,2.25,0.875,3.9375,-1.875,274.8125,10.9375,-98.0,-0.642822265625,-0.39404296875,-0.4443359375,-0.4837646484375,-19.0,-14.0,14.0,186.0,953.0,-134.0,-37,432,1033,-66.89797847405016,445.91088285970056,1023.7166340994169,-5.518549663558969,-15.501114740537533,-4.155982066988543,
142,12.215999841690063,0.08499979972839355,11.76473360167174,11.624099692224172,102267.25,196.0,966.0,-143.0,5.75,-48.5625,2.25,2.4375,1.1875,2.1875,274.5625,11.0,-98.1875,-0.6434326171875,-0.39508056640625,-0.4447021484375,-0.4818115234375,8.0,13.0,-5.0,187.0,952.0,-137.0,-46,425,1037,-62.71838277924014,441.7287062877605,1026.3733072795335,-1.3073904362306075,-18.09609778530629,-1.4293324260605038,
143,12.300999879837036,0.08500003814697266,11.764700602497504,11.625071245988376,102267.25,180.0,976.0,-163.0,5.375,-48.875,1.5,1.1875,1.6875,-3.8125,274.375,11.0,-98.3125,-0.6434326171875,-0.39642333984375,-0.44482421875,-0.48052978515625,-7.0,24.0,-23.0,187.0,952.0,-139.0,-54,419,1030,-60.97470622339212,437.18296503020844,1027.0986458236268,0.372843739649388,-20.820603194024763,-0.662202737137201,
144,12.382999897003174,0.0820000171661377,12.195119398254892,11.62884609527047,102267.25,205.0,965.0,-172.0,5.75,-48.875,1.875,-3.375,-2.1875,0.3125,274.625,10.875,-98.1875,-0.642822265625,-0.396484375,-0.4442138671875,-0.48187255859375,0.0,-5.0,-5.0,185.0,953.0,-138.0,-23,453,1029,-53.3797649787137,440.3463720241668,1027.4789166589014,7.475968349918347,-16.246901046346917,-0.2541296119093634,
145,12.467999935150146,0.08500003814697266,11.764700602497504,11.629772277365177,102267.25,200.0,958.0,-131.0,6.1875,-48.875,1.875,-0.125,-1.625,2.5,274.9375,10.875,-98.125,-0.64324951171875,-0.394775390625,-0.44342041015625,-0.48345947265625,15.0,4.0,5.0,185.0,953.0,-136.0,-53,448,1021,-53.30381198297096,441.8770976193335,1026.1831333271211,6.969123234592393,-13.609232984236069,-1.4083883584881767,
146,12.55299997329712,0.08500003814697266,11.764700602497504,11.630685916559614,102267.25,157.0,962.0,-154.0,5.75,-49.6875,1.0625,0.5625,-0.4375,-1.9375,274.9375,10.875,-98.125,-0.64337158203125,-0.39453125,-0.44342041015625,-0.48345947265625,-15.0,11.0,-26.0,185.0,953.0,-136.0,-36,437,1033,-49.84304958637678,440.90167809546676,1027.546506661697,9.567542921356827,-13.444936981279335,-0.06488716489955104,
147,12.632999897003174,0.07999992370605469,12.500011920940324,11.636191023390387,102264.5,198.0,953.0,-121.0,6.5,-49.25,1.875,-0.3125,-1.75,0.0625,274.9375,10.9375,-98.0,-0.64337158203125,-0.3931884765625,-0.44378662109375,-0.4842529296875,0.0,-2.0,3.0,186.0,953.0,-134.0,-23,424,1043,-44.47443966910143,437.52134247637343,1030.6372053293576,13.998134089703516,-15.663252969950154,2.9149094514115834,
148,12.717999696731567,0.08499979972839355,11.76473360167174,11.637050128097968,102264.5,198.0,960.0,-130.0,5.375,-49.25,1.5,-1.6875,-0.6875,1.5,275.0,11.0,-98.0,-0.64404296875,-0.39227294921875,-0.4434814453125,-0.48443603515625,11.0,7.0,4.0,187.0,953.0,-134.0,-1,439,1040,-35.779551735281146,437.81707398109876,1032.509764263486,20.79684186310584,-14.18928390871894,4.386783513688611,
149,12.805999755859375,0.08800005912780762,11.363628728335758,11.635171235406682,102264.5,195.0,964.0,-134.0,6.5,-49.6875,2.25,-1.8125,0.4375,1.4375,275.0,11.0625,-97.875,-0.6436767578125,-0.3912353515625,-0.4443359375,-0.48492431640625,15.0,13.0,0.0,188.0,953.0,-132.0,-51,424,1017,-38.82364138822492,435.05365918487905,1029.4078114107888,16.531908382996434,-15.51469536977812,1.334794260718914,
150,12.888000011444092,0.0820002555847168,12.195083940523473,11.638733695438026,102264.5,191.0,957.0,-121.0,6.875,-47.75,1.0625,-2.5,2.625,-0.5,274.8125,11.125,-97.625,-0.64251708984375,-0.39068603515625,-0.44598388671875,-0.48541259765625,1.0,3.0,6.0,190.0,953.0,-128.0,-47,425,1023,-40.458913110579935,433.0429273479033,1028.1262491286311,13.723396191690057,-16.208184178407993,0.028600612987597973,
151,12.96999979019165,0.0819997787475586,12.195154856192504,11.642251537597655,102266.25,173.0,964.0,-138.0,5.75,-48.1875,1.5,-0.6875,1.8125,-0.875,274.625,11.125,-97.5,-0.6409912109375,-0.3914794921875,-0.44757080078125,-0.4853515625,-16.0,11.0,-12.0,190.0,953.0,-125.0,-68,435,1010,-45.96713048846395,433.43434187832264,1024.5009993029048,7.494330264255226,-14.59260521419063,-3.3778088265304778,
152,13.059000015258789,0.08900022506713867,11.23592664227124,11.639482335737467,102266.25,163.0,954.0,-125.0,5.75,-48.1875,0.25,-2.375,-1.625,-1.875,274.8125,11.0,-97.375,-0.63995361328125,-0.3919677734375,-0.447265625,-0.48663330078125,-23.0,0.0,-2.0,187.0,954.0,-123.0,-52,448,1027,-47.173704390771164,436.34747350265815,1025.000799442324,5.8733796930877595,-10.948631153963758,-2.68530728380966,
153,13.147000074386597,0.08800005912780762,11.363628728335758,11.6376358967305,102266.25,192.0,958.0,-117.0,5.375,-48.5625,1.5,-4.25,-1.6875,0.3125,275.0,11.0,-97.1875,-0.6397705078125,-0.3902587890625,-0.44708251953125,-0.48834228515625,5.0,3.0,3.0,187.0,955.0,-120.0,-45,445,1014,-46.738963512616934,438.07797880212655,1022.8006395538594,5.8015274695129015,-8.591395435469163,-4.403677231848977,
154,13.232999801635742,0.08599972724914551,11.627943855018865,11.637572909278207,102266.25,201.0,959.0,-112.0,5.375,-49.6875,-0.0625,-1.4375,-0.75,-0.6875,275.1875,10.9375,-96.9375,-0.638916015625,-0.3890380859375,-0.44732666015625,-0.49029541015625,14.0,3.0,3.0,186.0,955.0,-116.0,-28,450,1037,-42.99117081009355,440.4623830417013,1025.6405116430876,8.710402335000142,-5.794977652778853,-1.521909847905039,
155,13.32099986076355,0.08800005912780762,11.363628728335758,11.635763202471463,102269.25,176.0,961.0,-134.0,5.75,-48.5625,0.6875,-0.875,0.4375,-0.6875,275.3125,10.8125,-96.8125,-0.63812255859375,-0.38922119140625,-0.44732666015625,-0.49114990234375,-8.0,4.0,-19.0,184.0,956.0,-115.0,-43,454,1027,-42.992936648074846,443.16990643336106,1025.91240931447,8.038156248009667,-2.9796829976147112,-1.1668124870102596,
156,13.412999868392944,0.09200000762939453,10.869564315997886,11.630507830511958,102269.25,181.0,956.0,-127.0,5.75,-49.25,1.0625,-0.1875,-0.3125,-0.1875,275.3125,10.875,-96.6875,-0.63775634765625,-0.3885498046875,-0.44793701171875,-0.49163818359375,-4.0,0.0,-14.0,185.0,956.0,-113.0,-74,460,1014,-49.194349318459885,446.5359251466889,1023.5299274515762,2.228905868861755,0.06696367399105974,-3.07100149322308,
157,13.497999906539917,0.08500003814697266,11.764700602497504,11.631352873541799,102269.25,175.0,958.0,-119.0,5.0625,-49.6875,0.6875,2.1875,-0.875,-0.0625,275.3125,10.875,-96.8125,-0.6383056640625,-0.388916015625,-0.447265625,-0.4912109375,-4.0,1.0,-4.0,185.0,956.0,-115.0,-28,442,1033,-44.95547945476791,445.6287401173512,1025.4239419612609,5.897195799584383,-0.7599950690206603,-1.1187808277164852,
158,13.58299994468689,0.08500003814697266,11.764700602497504,11.632187340308654,102269.25,199.0,971.0,-122.0,5.375,-48.1875,1.0625,1.3125,-1.6875,1.5,275.5,10.8125,-97.0625,-0.63946533203125,-0.38934326171875,-0.44561767578125,-0.49078369140625,15.0,15.0,-4.0,184.0,955.0,-118.0,-75,445,1018,-50.96438356381433,445.50299209388095,1023.9391535690088,-0.0002460269713209229,-0.8153883129622734,-2.37767770273634,
159,13.66599988937378,0.08299994468688965,12.048200800282656,11.634713982665332,102269.25,185.0,953.0,-102.0,5.375,-48.1875,1.875,-0.5,2.375,-0.1875,275.5,10.8125,-97.125,-0.63970947265625,-0.38958740234375,-0.4454345703125,-0.490478515625,1.0,-2.0,17.0,184.0,955.0,-119.0,-43,453,1026,-49.37150685105147,447.0023936751048,1024.3513228552072,1.477502900485974,0.6384086196110107,-1.8122223486909457,
160,13.750999927520752,0.08500003814697266,11.764700602497504,11.635517478244022,102268.5,178.0,971.0,-135.0,5.75,-48.875,1.0625,1.3125,6.1875,-1.6875,275.0,10.875,-97.0625,-0.63812255859375,-0.39154052734375,-0.44781494140625,-0.48883056640625,-7.0,15.0,-17.0,185.0,955.0,-118.0,-26,449,1036,-44.697205480841184,447.4019149400839,1026.6810582841658,5.598100400418881,0.9511702570453084,0.43778403712244285,
161,13.835999965667725,0.08500003814697266,11.764700602497504,11.636311101438352,102268.5,162.0,952.0,-132.0,5.75,-48.1875,1.0625,-1.6875,4.1875,-0.125,274.5,10.8125,-96.9375,-0.6358642578125,-0.39422607421875,-0.45013427734375,-0.487548828125,-23.0,8.0,-15.0,184.0,956.0,-117.0,-62,469,1010,-48.157764384672944,451.72153195206715,1023.3448466273327,2.032188834178281,4.790993213737548,-2.618139243004699,
162,13.918999910354614,0.08299994468688965,12.048200800282656,11.638767227772238,102268.5,191.0,958.0,-116.0,6.0625,-48.875,-0.0625,0.75,1.9375,-0.75,274.3125,10.8125,-96.875,-0.634521484375,-0.395263671875,-0.45166015625,-0.48699951171875,7.0,2.0,0.0,184.0,956.0,-115.0,-41,453,1027,-46.72621150773836,451.97722556165377,1024.0758773018663,3.203778305796376,4.6592966285567,-1.7383569857314274,
163,14.003000020980835,0.0840001106262207,11.904746226463292,11.64036276196354,102268.5,185.0,961.0,-132.0,5.0625,-48.875,1.0625,0.9375,1.4375,1.4375,274.125,10.8125,-96.9375,-0.63433837890625,-0.3961181640625,-0.45220947265625,-0.48602294921875,0.0,5.0,-16.0,184.0,956.0,-116.0,-69,457,1019,-51.180969206190696,452.9817804493231,1023.060701841493,-1.126435136085266,5.221371555793587,-2.535079777623011,
164,14.087999820709229,0.08499979972839355,11.76473360167174,11.641113152125508,102265.0,173.0,969.0,-134.0,5.0625,-49.25,1.5,0.3125,-1.3125,0.5,274.125,10.8125,-97.0625,-0.635009765625,-0.39678955078125,-0.451416015625,-0.48529052734375,-10.0,13.0,-15.0,184.0,955.0,-118.0,-48,451,1017,-50.544775364952564,452.5854243594585,1021.8485614731944,-0.4633814988950038,4.460273112730886,-3.437937790852672,
165,14.172999858856201,0.08500003814697266,11.764700602497504,11.641854345810735,102265.0,187.0,961.0,-122.0,6.1875,-48.5625,1.5,0.75,-2.5625,-1.5,274.3125,10.75,-97.125,-0.63568115234375,-0.396240234375,-0.45037841796875,-0.48583984375,3.0,5.0,-2.0,183.0,955.0,-119.0,-71,460,1019,-54.635820291962055,454.06833948756685,1021.2788491785557,-4.133704864737823,5.460178125635994,-3.6893086633079935,
166,14.256999969482422,0.0840001106262207,11.904746226463292,11.64340326543652,102265.0,188.0,956.0,-124.0,6.875,-49.25,2.25,0.4375,-3.0,0.5,274.625,10.6875,-97.125,-0.6363525390625,-0.39556884765625,-0.448974609375,-0.48681640625,5.0,0.0,-3.0,182.0,955.0,-120.0,-45,432,1034,-52.70865623356965,449.65467159005345,1023.8230793428445,-2.0488448631549643,0.9938874988825983,-1.0730239837702795,
167,14.339999914169312,0.08299994468688965,12.048200800282656,11.645746234279109,102265.0,160.0,953.0,-112.0,6.5,-48.875,0.6875,1.5625,-2.6875,0.4375,274.8125,10.6875,-97.25,-0.63714599609375,-0.3951416015625,-0.44775390625,-0.4873046875,-15.0,3.0,-7.0,181.0,955.0,-122.0,-62,431,1019,-54.56692498685572,445.9237372720428,1022.8584634742756,-3.615021029889105,-2.5438723679078397,-1.885286334353569,
168,14.42300009727478,0.08300018310546875,12.048166191745565,11.648062044438559,102265.0,168.0,966.0,-141.0,5.75,-49.25,1.5,1.25,-3.625,-1.6875,275.0,10.6875,-97.5,-0.63909912109375,-0.39459228515625,-0.44580078125,-0.48699951171875,-23.0,7.0,-9.0,181.0,955.0,-125.0,-50,456,1028,-53.65353998948458,447.93898981763425,1023.8867707794205,-2.4893091136938024,-0.4784266813318663,-0.7861495538482721,
169,14.510999917984009,0.08799982070922852,11.363659515900926,11.646337327212866,102269.0,198.0,950.0,-120.0,6.0625,-48.5625,1.0625,-2.125,-5.6875,3.5,275.4375,10.6875,-97.4375,-0.640625,-0.3917236328125,-0.44427490234375,-0.4886474609375,24.0,-3.0,14.0,182.0,955.0,-125.0,-64,453,1020,-55.72283199158767,448.95119185410744,1023.1094166235365,-4.108266502756867,0.4440907595219625,-1.4058023104086894,
170,14.595999956130981,0.08500003814697266,11.764700602497504,11.647026617631106,102269.0,213.0,960.0,-102.0,6.1875,-49.25,1.5,1.75,-0.0625,2.0625,275.3125,11.0,-97.375,-0.641845703125,-0.388671875,-0.44500732421875,-0.48883056640625,24.0,7.0,7.0,187.0,954.0,-123.0,-48,433,1029,-54.17826559327014,445.760953483286,1024.2875332988292,-2.39273516680455,-2.4800835737763602,-0.23032090561583551,
171,14.680999755859375,0.08499979972839355,11.76473360167174,11.647708115501583,102269.0,190.0,978.0,-126.0,6.0625,-48.1875,1.5,1.5,4.0625,-0.375,274.9375,11.1875,-97.3125,-0.6414794921875,-0.38909912109375,-0.4468994140625,-0.48724365234375,0.0,24.0,-3.0,190.0,954.0,-123.0,-62,423,1016,-55.74261247461612,441.2087627866289,1022.6300266390634,-3.6256121315729875,-6.412876074059415,-1.7140957666092784,
172,14.760999917984009,0.08000016212463379,12.499974668077307,11.652327142854627,102269.0,175.0,970.0,-140.0,5.0625,-48.875,0.6875,-0.9375,0.375,-0.4375,274.75,11.125,-97.375,-0.64056396484375,-0.3907470703125,-0.447509765625,-0.48651123046875,-20.0,5.0,-6.0,189.0,954.0,-123.0,-77,426,1012,-59.994089979692895,438.1670102293031,1020.5040213112508,-7.438478803324605,-8.846765519667962,-3.6283863737032513,
173,14.846999883651733,0.08599996566772461,11.627911618751906,11.652185718038096,102265.75,184.0,955.0,-119.0,5.75,-49.25,1.5,-0.9375,-1.8125,0.1875,274.9375,11.0,-97.375,-0.64068603515625,-0.39068603515625,-0.44677734375,-0.48712158203125,6.0,0.0,-8.0,188.0,954.0,-123.0,-88,434,1025,-65.59527198375432,437.33360818344255,1021.4032170490007,-11.880729731858892,-8.911750425229362,-2.543906443306511,
174,14.928999900817871,0.0820000171661377,12.195119398254892,11.65516787165814,102265.75,200.0,952.0,-121.0,5.75,-48.875,1.5,1.25,-2.0,0.6875,275.0625,11.0,-97.4375,-0.64141845703125,-0.390380859375,-0.44573974609375,-0.48736572265625,12.0,-1.0,4.0,187.0,954.0,-125.0,-28,442,1020,-58.076217587003455,438.2668865467541,1021.1225736392006,-3.9053395504687964,-7.34917467991249,-2.6115565987669864,
175,15.013999700546265,0.08499979972839355,11.76473360167174,11.655788163738464,102265.75,207.0,969.0,-130.0,6.5,-48.875,1.5,2.75,-0.625,2.9375,275.0,11.125,-97.5625,-0.64251708984375,-0.39013671875,-0.4454345703125,-0.486328125,18.0,15.0,-3.0,189.0,953.0,-127.0,-65,425,1014,-59.46097406960277,435.6135092374033,1019.6980589113605,-4.859057821397307,-9.186941573130136,-3.7009125345835914,
176,15.097999811172485,0.0840001106262207,11.904746226463292,11.657173281308456,102265.75,166.0,974.0,-139.0,5.375,-49.25,1.875,0.6875,0.75,-2.625,274.9375,11.0625,-97.6875,-0.642578125,-0.39129638671875,-0.4451904296875,-0.48553466796875,-31.0,16.0,-14.0,188.0,953.0,-129.0,-77,432,1018,-62.968779255682215,434.89080738992266,1019.3584471290884,-7.700394221665082,-9.142022893056435,-3.7272526598475313,
177,15.183000087738037,0.08500027656555176,11.764667603508387,11.65777507588551,102265.75,194.0,955.0,-113.0,6.1875,-48.5625,0.6875,-2.3125,-0.5,-0.125,275.0,11.0,-97.5625,-0.64178466796875,-0.39080810546875,-0.44573974609375,-0.486572265625,6.0,1.0,12.0,188.0,954.0,-126.0,-38,448,1026,-57.97502340454577,437.5126459119382,1020.6867577032708,-2.5837232851063288,-6.063017608728929,-2.236965011819202,
178,15.264999866485596,0.0819997787475586,12.195154856192504,11.660661746273586,102270.75,192.0,958.0,-128.0,6.1875,-48.5625,1.5,-0.5,0.0625,-0.875,275.125,10.9375,-97.5,-0.64154052734375,-0.39068603515625,-0.44525146484375,-0.4873046875,6.0,3.0,-2.0,186.0,954.0,-126.0,-37,456,1026,-53.78001872363662,441.2101167295506,1021.7494061626168,1.5544457492196004,-2.12414060468505,-1.066863191913918,
179,15.349999904632568,0.08500003814697266,11.764700602497504,11.661237857465949,102270.75,183.0,959.0,-128.0,5.75,-48.5625,-0.0625,-2.0625,0.3125,0.5,275.1875,10.875,-97.375,-0.64093017578125,-0.39056396484375,-0.4454345703125,-0.48809814453125,-2.0,4.0,-4.0,186.0,954.0,-124.0,-51,435,1017,-53.2240149789093,439.9680933836405,1020.7995249300934,1.938427181004688,-3.085708304182002,-1.8451949858963257,
180,15.434999942779541,0.08500003814697266,11.764700602497504,11.66180762340745,102270.75,186.0,965.0,-126.0,6.1875,-49.25,2.75,-1.25,0.4375,-1.25,275.1875,10.9375,-97.3125,-0.640625,-0.39019775390625,-0.44580078125,-0.48846435546875,0.0,11.0,-3.0,186.0,954.0,-122.0,-55,454,991,-53.57921198312744,442.77447470691243,1014.8396199440748,1.4674017345334809,-0.3058585893154002,-7.102085301030071,
181,15.519000053405762,0.0840001106262207,11.904746226463292,11.663122583743931,102270.75,168.0,957.0,-114.0,5.375,-48.875,1.0625,-1.1875,0.375,-1.625,275.25,10.8125,-97.1875,-0.6397705078125,-0.39068603515625,-0.446044921875,-0.489013671875,-15.0,1.0,3.0,184.0,955.0,-121.0,-83,450,1010,-59.46336958650196,444.21957976552994,1013.8716959552598,-4.03939223192658,1.0423704145552155,-7.442487220758567,
182,15.601999759674072,0.08299970626831055,12.048235409018574,11.665171311591022,102272.25,177.0,950.0,-120.0,6.5,-47.75,0.6875,-0.0625,-0.0625,-1.4375,275.3125,10.75,-97.1875,-0.63922119140625,-0.39105224609375,-0.44573974609375,-0.4896240234375,-6.0,-5.0,0.0,183.0,955.0,-120.0,5,438,1036,-46.57069566920157,442.975663812424,1018.297356764208,8.232356691297625,-0.1918905092337131,-2.763667653226216,
183,15.685999870300293,0.0840001106262207,11.904746226463292,11.66645425941194,102272.25,199.0,964.0,-122.0,6.1875,-50.0625,1.0625,-0.8125,1.3125,0.0,275.3125,10.75,-97.1875,-0.63916015625,-0.39111328125,-0.4459228515625,-0.489501953125,15.0,8.0,-2.0,183.0,955.0,-120.0,-33,450,1021,-43.85655653536126,444.38053104993924,1018.8378854113664,10.086422822167208,1.1106783317031326,-2.05538130324107,
184,15.769999742507935,0.0839998722076416,11.904780015951362,11.667723716191901,102272.25,185.0,955.0,-128.0,5.75,-48.875,1.0625,0.125,1.125,-0.125,275.25,10.6875,-97.125,-0.638427734375,-0.39202880859375,-0.44635009765625,-0.4893798828125,3.0,0.0,-8.0,182.0,955.0,-120.0,-51,450,1012,-45.28524522828901,445.5044248399514,1017.4703083290932,8.000134970615523,2.0553936416789274,-3.150731175479089,
185,15.85699987411499,0.08700013160705566,11.494235485948398,11.666771865338443,102272.25,180.0,964.0,-134.0,6.0625,-48.5625,0.25,0.375,0.125,-0.25,275.125,10.6875,-97.125,-0.63818359375,-0.39251708984375,-0.4466552734375,-0.489013671875,-2.0,8.0,-14.0,182.0,955.0,-120.0,-15,437,1033,-39.22819618263121,443.8035398719611,1020.5762466632747,12.744952980094318,0.3917496598121917,-0.1591951053876559,
186,15.940999746322632,0.0839998722076416,11.904780015951362,11.668026030983887,102272.25,178.0,957.0,-122.0,5.75,-48.875,1.5,-0.25,0.625,-0.5,275.0625,10.75,-97.125,-0.63800048828125,-0.39239501953125,-0.44720458984375,-0.48883056640625,-5.0,1.0,-3.0,183.0,955.0,-119.0,-51,451,1021,-41.58255694610497,445.2428318975689,1020.6609973306198,9.605424284141687,1.6809379666618545,-0.06924885234974214,
187,16.027999877929688,0.08700013160705566,11.494235485948398,11.667082694297756,102267.25,189.0,956.0,-116.0,6.0625,-48.5625,0.25,1.4375,0.6875,-0.875,275.0,10.75,-97.125,-0.6376953125,-0.39288330078125,-0.447509765625,-0.48858642578125,7.0,4.0,-1.0,183.0,955.0,-119.0,-72,443,1014,-47.66604555688398,444.79426551805517,1019.328797864496,3.4815777127975966,1.1544993182436956,-1.2429879978157243,
188,16.115000009536743,0.08700013160705566,11.494235485948398,11.66614954320465,102267.25,186.0,963.0,-136.0,6.1875,-48.1875,1.5,-0.0625,0.125,-0.125,275.0,10.6875,-97.1875,-0.637939453125,-0.3934326171875,-0.4471435546875,-0.4881591796875,-2.0,6.0,-9.0,182.0,955.0,-121.0,-56,452,1018,-49.33283644550719,446.2354124144441,1019.0630382915969,1.7382927314777166,2.341098769103172,-1.3824900617270826,
189,16.20199990272522,0.08699989318847656,11.494266985289281,11.665226585281593,102267.25,166.0,949.0,-125.0,6.875,-48.1875,1.5,-0.75,-0.9375,0.5625,275.0,10.75,-97.1875,-0.63812255859375,-0.3931884765625,-0.447021484375,-0.48822021484375,-16.0,-7.0,-2.0,182.0,955.0,-121.0,-58,440,1016,-51.06626915640576,444.9883299315553,1018.4504306332776,0.07025473588608455,1.0570931400351262,-1.818231977584567,
190,16.28999972343445,0.08799982070922852,11.363659515900926,11.663597496976628,102267.25,194.0,972.0,-128.0,6.0625,-48.875,2.25,1.9375,-2.1875,1.5,275.125,10.8125,-97.375,-0.6397705078125,-0.3922119140625,-0.4459228515625,-0.4879150390625,10.0,17.0,-4.0,184.0,955.0,-123.0,-6,456,1043,-42.05301532512461,447.19066394524424,1023.3603445066221,7.95145829174113,2.902743156384752,2.617955276889024,
191,16.375,0.08500027656555176,11.764667603508387,11.664122137404581,102271.25,177.0,964.0,-121.0,5.375,-49.25,1.875,0.125,-1.5,-0.9375,275.25,10.75,-97.4375,-0.640380859375,-0.39190673828125,-0.445068359375,-0.48809814453125,-6.0,9.0,3.0,183.0,955.0,-124.0,-38,448,1033,-41.24241226009969,447.3525311561954,1025.2882756052977,8.073504625894117,2.825864106164697,4.162845798024201,
192,16.45699977874756,0.0819997787475586,12.195154856192504,11.666768097545173,102271.25,179.0,958.0,-132.0,4.6875,-48.875,-0.0625,0.25,0.125,-1.5625,275.3125,10.75,-97.375,-0.64031982421875,-0.39166259765625,-0.44500732421875,-0.48846435546875,-16.0,0.0,3.0,183.0,955.0,-124.0,-64,445,1008,-45.79392980807975,446.88202492495634,1021.8306204842382,3.1778472474215977,2.1664545509811752,0.595475419248034,
193,16.539000034332275,0.0820002555847168,12.195083940523473,11.669387484089931,102271.25,184.0,954.0,-108.0,5.75,-48.5625,0.25,-0.0625,0.1875,1.5,275.25,10.8125,-97.4375,-0.6405029296875,-0.3916015625,-0.44500732421875,-0.48822021484375,0.0,0.0,16.0,184.0,955.0,-124.0,-25,444,1028,-41.635143846463805,446.3056199399651,1023.0644963873907,6.838342289098573,1.4583808980263746,1.7082597682232175,
194,16.622999906539917,0.0839998722076416,11.904780015951362,11.67057697712405,102271.25,200.0,974.0,-133.0,6.0625,-49.25,2.25,1.5,1.4375,0.125,275.125,10.8125,-97.5625,-0.64093017578125,-0.39227294921875,-0.4449462890625,-0.48712158203125,15.0,19.0,-6.0,184.0,954.0,-126.0,-64,450,1018,-46.10811507717105,447.04449595197207,1022.0515971099127,2.211560066855812,2.02338961029285,0.6482313491647463,
195,16.709999799728394,0.08699989318847656,11.494266985289281,11.669659026756515,102271.25,163.0,966.0,-147.0,5.375,-48.5625,0.6875,-0.5625,1.0625,-1.4375,275.0625,10.75,-97.5625,-0.64007568359375,-0.3939208984375,-0.4451904296875,-0.48681640625,-21.0,10.0,-18.0,182.0,955.0,-127.0,-59,465,1020,-48.68649206173684,450.6355967615777,1021.6412776879301,-0.24074467389005827,5.045923114005854,0.23516081939426442,
196,16.792999744415283,0.08299994468688965,12.048200800282656,11.671529981722426,102267.75,173.0,947.0,-122.0,6.875,-48.875,1.875,0.25,-2.3125,0.0,275.25,10.625,-97.5,-0.63995361328125,-0.3936767578125,-0.444580078125,-0.4876708984375,-8.0,-8.0,4.0,181.0,955.0,-126.0,-52,434,1025,-49.34919364938948,447.3084774092622,1022.3130221503442,-0.837003192500813,1.5707802769007397,0.8402384733633614,
197,16.875,0.0820002555847168,12.195083940523473,11.674074074074074,102267.75,201.0,964.0,-127.0,6.1875,-48.875,1.0625,1.0,-1.125,1.25,275.375,10.6875,-97.5625,-0.6407470703125,-0.39300537109375,-0.44390869140625,-0.48779296875,19.0,9.0,0.0,181.0,955.0,-127.0,-29,446,1032,-45.27935491951159,447.04678192740977,1024.2504177202754,3.049111973336328,1.2040925212398337,2.59479613421525,
198,16.960000038146973,0.08500003814697266,11.764700602497504,11.674528275628072,102267.75,182.0,968.0,-135.0,5.375,-48.875,1.0625,0.5,1.625,-1.375,275.25,10.6875,-97.5625,-0.6407470703125,-0.3931884765625,-0.44427490234375,-0.48724365234375,0.0,13.0,-8.0,182.0,955.0,-127.0,-70,462,1008,-50.22348393560927,450.03742554192786,1021.0003341762205,-1.664466864927824,3.8205474555897423,-0.5491951749454533,
199,17.043999910354614,0.0839998722076416,11.904780015951362,11.675663051318313,102267.75,183.0,962.0,-134.0,6.1875,-48.1875,1.0625,-2.0,0.1875,0.0625,275.3125,10.625,-97.5,-0.6400146484375,-0.39361572265625,-0.44439697265625,-0.48773193359375,2.0,6.0,-7.0,181.0,955.0,-126.0,-82,434,1019,-56.57878714848742,446.82994043354233,1020.6002673409764,-7.362006390995093,0.5861661457870726,-0.8736356366995377,
200,17.128000020980835,0.0840001106262207,11.904746226463292,11.676786534038492,102269.5,184.0,952.0,-126.0,5.0625,-48.5625,1.0625,1.0,-0.1875,0.8125,275.3125,10.625,-97.4375,-0.639892578125,-0.39312744140625,-0.44464111328125,-0.48809814453125,2.0,-3.0,0.0,181.0,955.0,-125.0,-79,448,1016,-61.063029718789934,447.0639523468339,1019.6802138727812,-10.905682174824799,0.7555419905727717,-1.6497469278040442,
201,17.211999893188477,0.0839998722076416,11.904780015951362,11.677899212603661,102269.5,169.0,964.0,-136.0,5.75,-48.875,2.25,1.5,0.25,-1.125,275.25,10.625,-97.5,-0.639892578125,-0.3939208984375,-0.4444580078125,-0.4876708984375,-11.0,8.0,-10.0,181.0,955.0,-126.0,-42,451,1023,-57.25042377503195,447.8511618774671,1020.344171098225,-6.5710505486713355,1.4189750915246266,-0.9140880317770519,
202,17.357999801635742,0.06399989128112793,15.625026542738466,11.637285534532866,102269.5,187.0,967.0,-136.0,5.375,-48.5625,1.5,0.1875,-0.5,15.875,275.3125,10.625,-97.5,-0.64013671875,-0.393310546875,-0.44427490234375,-0.48797607421875,3.0,11.0,-9.0,181.0,955.0,-126.0,-89,451,1015,-63.60033902002556,448.4809295019737,1019.2753368785801,-13.704834413455334,2.067404469825048,-2.1296466083141494,
203,17.443000078201294,0.08500027656555176,11.764667603508387,11.637906271277915,102269.5,174.0,956.0,-125.0,5.75,-48.875,2.25,-1.0,-0.9375,-0.625,275.375,10.625,-97.5,-0.64007568359375,-0.39312744140625,-0.44415283203125,-0.4884033203125,-6.0,0.0,0.0,180.0,955.0,-125.0,-62,435,1021,-63.280271216020445,445.784743601579,1019.6202695028642,-12.359619331616987,-0.5342049548380303,-1.6531964588602497,
204,17.526999950408936,0.0839998722076416,11.904780015951362,11.639185289964033,102267.25,189.0,959.0,-109.0,6.875,-47.5,0.6875,0.6875,-1.0625,1.625,275.4375,10.625,-97.5,-0.6405029296875,-0.39239501953125,-0.44390869140625,-0.48858642578125,7.0,4.0,16.0,181.0,955.0,-125.0,-66,437,1018,-63.82421697281636,444.0277948812633,1019.2962156022915,-11.906546345377926,-2.103609950444789,-1.8229501922994609,
205,17.609999895095825,0.08299994468688965,12.048200800282656,11.641113073322053,102267.25,159.0,964.0,-131.0,5.375,-48.875,1.0625,2.0,0.4375,-1.6875,275.375,10.625,-97.625,-0.64080810546875,-0.3931884765625,-0.44366455078125,-0.48785400390625,-21.0,9.0,-3.0,181.0,955.0,-127.0,-77,442,1018,-66.45937357825309,443.6222359050106,1019.0369724818332,-13.434407262815785,-2.3178736948937386,-1.9230858416880874,
206,17.694999933242798,0.08500003814697266,11.764700602497504,11.641706740727198,102267.25,183.0,960.0,-125.0,6.0625,-49.6875,0.6875,1.4375,0.75,0.0,275.3125,10.6875,-97.625,-0.64105224609375,-0.393310546875,-0.4437255859375,-0.4873046875,1.0,5.0,3.0,181.0,955.0,-128.0,-29,432,1030,-58.96749886260248,441.29778872400846,1021.2295779854667,-5.613203854038078,-4.245072156999255,0.21123350942384644,
207,17.77900004386902,0.0840001106262207,11.904746226463292,11.642949518490086,102267.25,185.0,966.0,-132.0,6.5,-47.75,0.25,1.625,1.6875,-0.25,275.25,10.6875,-97.75,-0.64129638671875,-0.39385986328125,-0.44378662109375,-0.48651123046875,2.0,11.0,-2.0,182.0,954.0,-130.0,-34,444,1024,-53.97399909008199,441.8382309792068,1021.7836623883734,-0.6036183940977295,-3.422796852749391,0.7028785629559388,
208,17.863999843597412,0.08499979972839355,11.76473360167174,11.643528986849422,102267.25,167.0,973.0,-148.0,6.0625,-48.875,1.875,-1.0625,-0.25,0.125,275.25,10.625,-97.75,-0.64080810546875,-0.39453125,-0.44378662109375,-0.486572265625,-12.0,15.0,-16.0,181.0,954.0,-130.0,-90,435,1002,-61.179199272065595,440.47058478336544,1017.8269299106987,-7.084218850709251,-4.398170968054518,-2.9355856584269047,
209,17.949999809265137,0.08599996566772461,11.627911618751906,11.643454162719367,102271.25,188.0,961.0,-127.0,6.0625,-48.5625,1.875,-1.9375,-0.3125,-0.8125,275.3125,10.625,-97.5,-0.64007568359375,-0.3935546875,-0.44439697265625,-0.48779296875,3.0,2.0,-7.0,181.0,955.0,-126.0,-62,448,1012,-61.34335941765248,441.9764678266924,1016.661543928559,-6.685714653348481,-2.711220633443639,-3.752972963286097,
210,18.03500008583069,0.08500027656555176,11.764667603508387,11.644025450545344,102271.25,169.0,959.0,-128.0,6.0625,-49.25,1.875,-0.5,-0.1875,-1.5625,275.4375,10.5,-97.4375,-0.63946533203125,-0.3939208984375,-0.4442138671875,-0.48846435546875,-10.0,3.0,-3.0,179.0,955.0,-125.0,-61,447,1013,-61.27468753412199,442.9811742613539,1015.9292351428472,-6.108706180015531,-1.5923137769652889,-4.127377492534219,
211,18.115999937057495,0.08099985122680664,12.345701687771165,11.647162769546346,102271.25,172.0,958.0,-130.0,6.5,-48.5625,1.5,-0.8125,-1.3125,0.5625,275.4375,10.5,-97.375,-0.63916015625,-0.39361572265625,-0.44427490234375,-0.48907470703125,1.0,3.0,-6.0,179.0,956.0,-124.0,-67,442,1018,-62.41975002729759,442.7849394090831,1016.3433881142779,-6.7268540006586495,-1.6562502010486337,-3.415867729653283,
212,18.199999809265137,0.0839998722076416,11.904780015951362,11.648351770425647,102271.25,189.0,965.0,-117.0,6.0625,-48.5625,1.875,-2.875,0.875,0.125,275.5,10.5,-97.25,-0.63861083984375,-0.39300537109375,-0.44482421875,-0.48974609375,-1.0,6.0,-6.0,179.0,956.0,-122.0,-49,443,1017,-59.735800021838074,442.8279515272665,1016.4747104914223,-3.7485949946697956,-1.4892911005833798,-3.032466885617098,
213,18.282999992370605,0.08300018310546875,12.048166191745565,11.650166826499136,102272.25,174.0,959.0,-123.0,6.875,-49.25,1.0625,-1.875,0.0625,1.3125,275.5,10.5,-97.1875,-0.6380615234375,-0.39300537109375,-0.4449462890625,-0.4903564453125,-4.0,3.0,-3.0,178.0,956.0,-120.0,-67,418,1022,-61.18864001747046,437.8623612218133,1017.5797683931379,-4.807765624319552,-5.981237493335502,-1.7737949990690431,
214,18.369999885559082,0.08699989318847656,11.494266985289281,11.64942848846877,102272.25,188.0,963.0,-118.0,6.5,-48.5625,1.0625,-0.9375,0.4375,1.375,275.5,10.5625,-97.0625,-0.63775634765625,-0.3922119140625,-0.44561767578125,-0.49072265625,8.0,6.0,0.0,179.0,956.0,-118.0,-54,458,1009,-59.750912013976375,441.88988897745065,1015.8638147145105,-3.165094197869075,-1.956084299173828,-3.1559322723137764,
215,18.51900005340576,0.06100034713745117,16.39334933204093,11.609698114367689,102272.25,200.0,969.0,-121.0,6.0625,-49.25,0.25,-1.0625,1.1875,0.1875,275.3125,10.625,-96.875,-0.63671875,-0.39215087890625,-0.44708251953125,-0.49078369140625,19.0,12.0,-4.0,180.0,956.0,-116.0,-69,456,1006,-61.60072961118111,444.71191118196055,1013.8910517716084,-5.2563843121412575,1.7567386701031884,-5.40312027691256,
216,18.611999988555908,0.09299993515014648,10.752695670007947,11.605415867870914,102272.25,171.0,954.0,-130.0,6.5,-48.875,0.25,-0.3125,1.3125,-0.25,275.1875,10.5625,-96.8125,-0.63580322265625,-0.392822265625,-0.44781494140625,-0.4908447265625,-8.0,-2.0,-15.0,180.0,957.0,-114.0,-49,444,1015,-59.080583688944884,444.5695289455685,1014.1128414172867,-2.7650688348784227,1.5035833425363503,-4.803447600259482,
217,18.6969997882843,0.08499979972839355,11.76473360167174,11.606140153885761,102267.75,166.0,948.0,-108.0,5.75,-48.5625,1.0625,0.0,-0.4375,-0.875,275.1875,10.5625,-96.8125,-0.635498046875,-0.3931884765625,-0.44805908203125,-0.49072265625,-13.0,-8.0,5.0,179.0,957.0,-114.0,-48,439,1024,-56.86446695115591,443.4556231564548,1016.0902731338294,-0.5446127597202168,0.37873745045730134,-2.6422574182716634,
218,18.782999992370605,0.08600020408630371,11.627879382663684,11.606239689535675,102267.75,188.0,964.0,-127.0,6.0625,-48.875,1.5,1.9375,-1.0625,0.4375,275.1875,10.625,-96.9375,-0.63671875,-0.3929443359375,-0.4473876953125,-0.48992919921875,7.0,8.0,-9.0,181.0,956.0,-117.0,-80,454,999,-61.491573560924735,445.56449852516386,1012.6722185070637,-4.645542268503827,2.2377492951443703,-5.499147570165598,
219,18.868000030517578,0.08500003814697266,11.764700602497504,11.606953553412332,102267.75,178.0,958.0,-122.0,6.5,-48.875,0.25,1.125,-1.875,0.6875,275.1875,10.625,-97.0625,-0.63720703125,-0.39306640625,-0.4468994140625,-0.48956298828125,-3.0,2.0,-3.0,181.0,956.0,-118.0,-59,441,1015,-60.993258848739785,444.6515988201311,1013.137774805651,-3.836421212439008,1.2384632377622034,-4.653974161343358,
220,18.95299983024597,0.08499979972839355,11.76473360167174,11.607661160262083,102267.75,193.0,966.0,-129.0,5.75,-48.5625,1.0625,1.75,-0.875,0.875,275.1875,10.6875,-97.25,-0.63848876953125,-0.3929443359375,-0.44610595703125,-0.48883056640625,11.0,10.0,-7.0,181.0,955.0,-121.0,-70,445,1002,-62.79460707899183,444.7212790561049,1010.9102198445208,-5.172830197143583,1.2062238132965895,-6.313525634879889,
221,19.036999940872192,0.0840001106262207,11.904746226463292,11.608972037947842,102268.75,189.0,961.0,-111.0,5.75,-47.75,1.5,1.0,0.5,0.6875,275.1875,10.6875,-97.3125,-0.63909912109375,-0.3931884765625,-0.4456787109375,-0.48822021484375,7.0,5.0,12.0,182.0,955.0,-123.0,-59,452,1039,-62.03568566319346,446.1770232448839,1016.5281758756166,-4.078845223673626,2.4477749953035977,-0.6775979146490698,
222,19.127000093460083,0.09000015258789062,11.111092273131861,11.606629315378441,102268.75,196.0,963.0,-114.0,6.0625,-48.875,0.25,-0.125,5.8125,1.625,274.8125,10.75,-97.3125,-0.6383056640625,-0.39434814453125,-0.44732666015625,-0.48681640625,12.0,7.0,8.0,183.0,955.0,-123.0,-33,454,1031,-56.228548530554775,447.74161859590714,1019.4225407004934,1.2035458708571132,3.597892295945802,1.8508628321600198,
223,19.211999893188477,0.08499979972839355,11.76473360167174,11.607328817395194,102268.75,157.0,959.0,-127.0,5.75,-48.875,0.6875,-1.625,7.4375,-0.8125,274.125,10.875,-97.1875,-0.63604736328125,-0.39654541015625,-0.450927734375,-0.484619140625,-28.0,4.0,-6.0,185.0,955.0,-121.0,-72,453,1012,-59.38283882444382,448.7932948767258,1017.9380325603947,-1.746549806964534,4.273551817643148,0.36355349865508546,
224,19.299999952316284,0.08800005912780762,11.363628728335758,11.606217645255315,102268.75,158.0,941.0,-131.0,5.375,-48.1875,1.875,-2.0625,-0.9375,0.875,274.125,10.6875,-97.125,-0.63446044921875,-0.39794921875,-0.451171875,-0.48529052734375,-24.0,-14.0,-12.0,182.0,956.0,-119.0,-81,455,1017,-63.706271059555064,450.0346359013806,1017.7504260483158,-5.395066135726334,5.0306609944507,0.17140429148687858,
225,19.38599967956543,0.08599972724914551,11.627943855018865,11.606314026568876,102266.5,211.0,948.0,-94.0,5.375,-47.75,1.0625,2.4375,-0.6875,2.75,274.0625,10.9375,-97.1875,-0.63592529296875,-0.39642333984375,-0.45123291015625,-0.48455810546875,26.0,2.0,30.0,186.0,955.0,-120.0,-64,443,1015,-63.76501684764405,448.62770872110457,1017.2003408386527,-5.032244183147958,3.383605487831047,-0.3343135538324585,
226,19.47099995613098,0.08500027656555176,11.764667603508387,11.607005316069433,102266.5,176.0,980.0,-136.0,5.375,-49.25,2.25,5.0625,1.4375,-0.75,273.75,11.0,-97.5,-0.63720703125,-0.39813232421875,-0.45111083984375,-0.481689453125,-12.0,31.0,-14.0,187.0,954.0,-126.0,-52,456,1024,-61.41201347811524,450.10216697688367,1018.5602726709221,-2.513224087587559,4.458749233403774,0.9233628295088319,
227,19.555999994277954,0.08500003814697266,11.764700602497504,11.60769073769788,102266.5,206.0,972.0,-136.0,5.375,-47.75,1.5,-1.625,1.375,0.3125,273.5625,11.0625,-97.5,-0.6368408203125,-0.398681640625,-0.45184326171875,-0.48095703125,18.0,20.0,-14.0,188.0,954.0,-126.0,-66,447,1023,-62.329610782492196,449.481733581507,1019.4482181367378,-3.150940664936648,3.553386130621082,1.6566376584999294,
228,19.64299988746643,0.08699989318847656,11.494266985289281,11.607188377854621,102266.5,188.0,973.0,-117.0,3.875,-48.5625,1.5,-1.9375,8.125,-0.0625,273.25,11.125,-97.25,-0.63482666015625,-0.39886474609375,-0.45428466796875,-0.48114013671875,0.0,18.0,4.0,189.0,954.0,-121.0,-73,459,1016,-64.46368862599377,451.38538686520565,1018.7585745093903,-4.797102092282531,4.964620028512884,0.9187015645329566,
229,19.72599983215332,0.08299994468688965,12.048200800282656,11.609044000230128,102266.5,185.0,971.0,-131.0,4.6875,-48.5625,1.5,0.25,5.25,-0.125,272.5625,11.1875,-97.0625,-0.6322021484375,-0.40118408203125,-0.45794677734375,-0.479248046875,-5.0,16.0,-12.0,190.0,954.0,-118.0,-63,467,1023,-64.17095090079502,454.5083094921646,1019.6068596075123,-4.156149088260815,7.47951540110515,1.6349253523146463,
230,19.819999933242798,0.09400010108947754,10.63828643171471,11.6044399987225,102264.5,188.0,954.0,-130.0,4.6875,-48.875,1.5,-2.75,0.0625,1.5625,272.4375,11.125,-96.9375,-0.63067626953125,-0.40185546875,-0.4591064453125,-0.4794921875,2.0,-1.0,-4.0,189.0,955.0,-116.0,-24,465,1042,-56.13676072063602,456.6066475937317,1024.0854876860099,2.7450656530571496,8.622442290358997,5.1776955808400364,
231,19.905999898910522,0.08599996566772461,11.627911618751906,11.604541403250128,102264.5,217.0,956.0,-98.0,4.6875,-48.5625,2.75,0.6875,1.3125,0.875,272.25,11.3125,-96.8125,-0.6304931640625,-0.40093994140625,-0.46075439453125,-0.47900390625,24.0,1.0,2.0,193.0,954.0,-114.0,-15,421,1043,-47.90940857650882,449.48531807498534,1027.868390148808,9.900048714067777,1.582437584598014,8.166031694598065,
232,19.990999937057495,0.08500003814697266,11.764700602497504,11.605222386597058,102264.5,178.0,973.0,-134.0,5.375,-48.5625,1.5,1.25,2.9375,-0.25,271.875,11.3125,-96.875,-0.62982177734375,-0.40289306640625,-0.46160888671875,-0.4774169921875,-14.0,18.0,-18.0,192.0,954.0,-115.0,-32,460,1044,-44.72752686120705,451.5882544599883,1031.0947121190463,12.020154164532215,3.3656019961696675,10.459914080201804,
233,20.072999954223633,0.0820000171661377,12.195119398254892,11.607632169150364,102264.5,195.0,961.0,-109.0,5.75,-49.25,1.5,-0.5,0.875,0.5,271.5625,11.4375,-96.8125,-0.62908935546875,-0.4031982421875,-0.4632568359375,-0.47650146484375,0.0,7.0,4.0,194.0,954.0,-114.0,-18,465,1055,-39.38202148896565,454.2706035679907,1035.875769695237,16.114161165767495,5.625241350736243,14.144029431377703,
234,20.16099977493286,0.08799982070922852,11.363659515900926,11.606567264136546,102266.5,194.0,953.0,-134.0,5.75,-48.5625,0.25,0.3125,0.8125,-2.6875,271.6875,11.3125,-96.875,-0.62890625,-0.40435791015625,-0.46246337890625,-0.4765625,22.0,-4.0,-21.0,192.0,954.0,-115.0,-21,434,1053,-35.70561719117252,450.2164828543926,1039.3006157561897,18.090231070587926,1.6447349149514312,16.051685574051714,
235,20.244999885559082,0.0840001106262207,11.904746226463292,11.607804461763784,102266.5,110.0,910.0,-50.0,4.6875,-49.25,1.5,-3.25,2.75,6.875,271.5625,11.3125,-96.75,-0.62799072265625,-0.40435791015625,-0.46356201171875,-0.47662353515625,-82.0,-44.0,63.0,192.0,954.0,-114.0,-5,452,1060,-29.56449375293802,450.57318628351413,1043.440492604952,22.326639016125352,1.845068039238846,18.61058789843576,
236,20.32799983024597,0.08299994468688965,12.048200800282656,11.609602615642308,102266.5,398.0,1099.0,-211.0,6.0625,-49.25,0.6875,17.8125,-6.0,-1.125,271.0,12.0625,-97.4375,-0.63470458984375,-0.40081787109375,-0.46295166015625,-0.47137451171875,192.0,148.0,-87.0,205.0,950.0,-124.0,-10,481,1065,-25.65159500235042,456.65854902681133,1047.7523940839615,24.2375288309693,7.348458565300327,21.17777305371718,
237,20.40999984741211,0.0820000171661377,12.195119398254892,11.611955010869364,102266.5,120.0,885.0,-187.0,4.6875,-48.5625,2.25,-9.4375,1.3125,-28.625,272.5,10.5,-97.5625,-0.62957763671875,-0.410400390625,-0.45599365234375,-0.47662353515625,-58.0,-70.0,-60.0,179.0,955.0,-127.0,-29,440,1052,-26.32127600188034,453.32683922144906,1048.6019152671693,21.74239245038789,3.6540711422640384,20.34480547264453,
238,20.49399971961975,0.0839998722076416,11.904780015951362,11.613155228657137,102266.5,160.0,946.0,-45.0,7.25,-48.1875,0.25,6.125,-10.875,25.5625,273.375,9.875,-96.8125,-0.62451171875,-0.41064453125,-0.4554443359375,-0.483642578125,-8.0,-12.0,69.0,168.0,959.0,-115.0,-38,465,1030,-28.657020801504274,455.6614713771593,1044.8815322137355,17.927125574712772,5.512790396165728,15.36789913063328,
239,20.578999996185303,0.08500027656555176,11.764667603508387,11.613781041076003,102265.5,452.0,1126.0,-266.0,6.0625,-48.875,1.875,6.6875,-2.4375,-0.6875,272.25,11.375,-97.5,-0.6346435546875,-0.40203857421875,-0.45721435546875,-0.47589111328125,258.0,173.0,-140.0,193.0,952.0,-126.0,-47,461,1039,-32.32561664120342,456.72917710172743,1043.7052257709884,13.223431487282976,6.05551816264984,13.118979116568081,
240,20.664000034332275,0.08500003814697266,11.764700602497504,11.614401839007508,102265.5,-108.0,806.0,-21.0,5.75,-48.5625,1.5,-12.5625,2.875,-4.75,273.375,9.75,-96.3125,-0.6212158203125,-0.41033935546875,-0.45794677734375,-0.48583984375,-275.0,-154.0,84.0,166.0,960.0,-106.0,-45,462,1022,-34.86049331296273,457.783341681382,1039.3641806167907,9.908928249484406,6.544191925361124,8.176343290930857,
241,20.746999979019165,0.08299994468688965,12.048200800282656,11.616137284605786,102265.5,351.0,1058.0,-148.0,6.875,-48.5625,1.0625,11.625,-14.5625,18.9375,272.875,11.0,-96.6875,-0.630126953125,-0.40032958984375,-0.45831298828125,-0.4822998046875,164.0,102.0,-35.0,187.0,955.0,-112.0,-63,453,1009,-40.48839465037019,456.82667334510563,1033.2913444934327,3.924872198684751,5.152776966574097,1.91292518133928,
242,20.83799982070923,0.09099984169006348,10.989030106292951,11.613398698635915,102265.5,27.0,867.0,-52.0,5.375,-49.6875,0.6875,-14.125,5.25,-11.8125,273.625,10.4375,-96.3125,-0.626708984375,-0.40167236328125,-0.45684814453125,-0.487060546875,-150.0,-91.0,53.0,177.0,958.0,-106.0,-36,469,1028,-39.59071572029615,459.26133867608456,1032.2330755947462,4.382232840090395,6.8161181579552785,0.8701700856832656,
243,20.925999879837036,0.08800005912780762,11.363628728335758,11.612348341554727,102266.25,231.0,971.0,-48.0,6.5,-49.25,1.5,3.625,-9.5625,13.0,273.625,10.875,-96.0625,-0.62860107421875,-0.396240234375,-0.45782470703125,-0.4881591796875,46.0,13.0,53.0,185.0,957.0,-102.0,-57,427,1026,-43.07257257623692,452.8090709408676,1030.986460475797,0.9981782095020915,0.645546584883192,-0.2876205070872401,
244,21.01199984550476,0.08599996566772461,11.627911618751906,11.612412040456043,102266.25,179.0,986.0,-138.0,5.375,-47.75,0.6875,-1.375,4.8125,-9.4375,273.8125,10.875,-96.5,-0.631591796875,-0.39642333984375,-0.45501708984375,-0.4866943359375,-5.0,29.0,-28.0,185.0,956.0,-110.0,-41,438,1033,-42.65805806098954,449.84725675269414,1031.3891683806378,1.2924537247653802,-2.0560184502188164,0.09509047023440198,
245,21.097999811172485,0.08599996566772461,11.627911618751906,11.612475220056632,102266.25,105.0,918.0,-69.0,5.75,-47.0625,-0.5,-4.3125,-1.3125,-1.1875,274.125,10.4375,-96.125,-0.627685546875,-0.398193359375,-0.4554443359375,-0.489990234375,-55.0,-33.0,35.0,178.0,958.0,-102.0,-19,417,1037,-37.92644644879163,443.2778054021553,1032.5113347045103,5.429379434307554,-7.779658005509166,1.0924992183621285,
246,21.183000087738037,0.08500027656555176,11.764667603508387,11.613085917060408,102266.25,304.0,1009.0,-110.0,5.375,-48.1875,-0.0625,6.125,-2.5625,4.9375,274.0,10.8125,-96.125,-0.6300048828125,-0.3946533203125,-0.45611572265625,-0.48919677734375,120.0,52.0,-7.0,184.0,957.0,-103.0,-38,430,1021,-37.9411571590333,440.6222443217243,1030.2090677636083,4.997991088418103,-9.586242431815478,-1.0771994291096059,
247,21.26699995994568,0.0839998722076416,11.904780015951362,11.614238043221913,102266.25,122.0,938.0,-116.0,5.75,-48.875,1.0625,-3.3125,12.0625,-9.1875,273.9375,10.3125,-96.125,-0.626220703125,-0.40081787109375,-0.45635986328125,-0.4888916015625,-69.0,-23.0,1.0,176.0,959.0,-103.0,-25,433,1025,-35.35292572722665,439.09779545737945,1029.1672542108868,6.985694863214146,-10.245515349486281,-1.9492522826027758,
248,21.3510000705719,0.0840001106262207,11.904746226463292,11.615380974206383,102268.5,173.0,991.0,-98.0,5.75,-49.6875,-0.0625,-3.125,3.4375,5.1875,273.5625,10.25,-95.8125,-0.62310791015625,-0.40240478515625,-0.45916748046875,-0.48883056640625,-3.0,-18.0,0.0,175.0,959.0,-98.0,-36,453,1018,-35.48234058178132,441.8782363659036,1026.9338033687095,6.329166231638236,-6.907876524724241,-3.8464870992182414,
249,21.43399977684021,0.08299970626831055,12.048235409018574,11.617057133174397,102268.5,211.0,983.0,-90.0,6.0625,-48.875,0.6875,2.3125,0.8125,-4.0,273.3125,10.375,-95.75,-0.62249755859375,-0.40228271484375,-0.4605712890625,-0.48846435546875,34.0,23.0,5.0,176.0,959.0,-96.0,-62,436,1022,-40.78587246542506,440.7025890927229,1025.9470426949676,0.9216589830321835,-7.466634615424854,-4.465739409077917,
250,21.526999950408936,0.09300017356872559,10.752668104011834,11.6133228306739,102268.5,119.0,932.0,-86.0,5.0625,-49.6875,0.25,-0.1875,2.0625,-0.625,273.4375,9.9375,-95.6875,-0.61981201171875,-0.40631103515625,-0.460205078125,-0.48883056640625,-50.0,-28.0,10.0,169.0,960.0,-96.0,-25,453,1017,-37.62869797234005,443.1620712741784,1024.1576341559742,3.4646910505745128,-4.855362088458159,-5.603428015994606,
251,21.61299991607666,0.08599996566772461,11.627911618751906,11.613380880702989,102268.5,188.0,959.0,-95.0,6.875,-48.1875,0.6875,3.875,-1.625,5.0,273.0625,10.3125,-95.8125,-0.62176513671875,-0.40460205078125,-0.461181640625,-0.48687744140625,19.0,5.0,4.0,176.0,959.0,-98.0,-13,456,1022,-32.702958377872044,445.7296570193427,1023.7261073247794,7.608166818612759,-2.1826133785348683,-5.558331259540507,
252,21.697999715805054,0.08499979972839355,11.76473360167174,11.613973790240237,102265.75,186.0,972.0,-171.0,6.875,-48.875,0.6875,12.125,-1.75,-2.5,272.875,10.375,-96.4375,-0.62451171875,-0.40673828125,-0.4593505859375,-0.4832763671875,9.0,13.0,-63.0,177.0,958.0,-108.0,-42,478,1017,-34.56236670229764,452.1837256154742,1022.3808858598235,5.337928816872536,3.832088473003309,-6.348955009681057,
253,21.79099988937378,0.09300017356872559,10.752668104011834,11.610297888321021,102265.75,153.0,953.0,-110.0,6.5,-48.1875,1.5,-2.3125,-3.0625,2.9375,273.0625,10.3125,-96.5625,-0.62554931640625,-0.40643310546875,-0.4578857421875,-0.48358154296875,-22.0,-4.0,0.0,176.0,958.0,-110.0,-37,427,1016,-35.04989336183811,447.1469804923794,1021.1047086878589,4.523257946107339,-0.6331828841696332,-6.916703310983607,
254,21.875,0.0840001106262207,11.904746226463292,11.611428571428572,102265.75,212.0,973.0,-111.0,5.75,-49.25,1.875,3.0625,-5.8125,-5.1875,273.3125,10.5,-96.75,-0.62841796875,-0.4041748046875,-0.4560546875,-0.48345947265625,33.0,16.0,2.0,178.0,957.0,-114.0,-48,455,1019,-37.63991468947049,448.7175843939035,1020.6837669502872,1.8007839940095667,0.8552905448966414,-6.769979907305468,
255,21.963000059127808,0.08800005912780762,11.363628728335758,11.610435701566288,102265.75,176.0,965.0,-131.0,5.75,-48.5625,0.25,-1.1875,-0.625,-0.0625,274.0,10.125,-96.8125,-0.6285400390625,-0.40447998046875,-0.4530029296875,-0.48590087890625,3.0,7.0,-16.0,172.0,958.0,-115.0,-45,477,1009,-39.11193175157639,454.3740675151229,1018.3470135602299,0.37410956255370587,5.7388525784574735,-8.293349296923372,
256,22.0479998588562,0.08499979972839355,11.76473360167174,11.611030553284877,102267.0,168.0,955.0,-96.0,6.875,-48.5625,0.6875,-2.9375,3.625,0.875,273.6875,10.1875,-96.6875,-0.6273193359375,-0.40478515625,-0.45489501953125,-0.4854736328125,-5.0,-3.0,15.0,174.0,958.0,-112.0,-45,433,1028,-40.289545401261115,450.09925401209836,1020.277610848184,-0.7214788110788821,1.424473691302977,-5.905863266623722,
257,22.132999897003174,0.08500003814697266,11.764700602497504,11.61162071097276,102267.0,184.0,975.0,-88.0,6.5,-46.75,1.0625,23.6875,25.75,-6.125,272.375,10.0625,-97.0,-0.6234130859375,-0.41436767578125,-0.45892333984375,-0.478515625,12.0,17.0,29.0,172.0,958.0,-118.0,-68,465,1003,-45.831636321008894,453.07940320967873,1016.8220886785473,-5.686405052090061,4.014452572716231,-8.58140694392602,
258,22.217999696731567,0.08499979972839355,11.76473360167174,11.612206477703468,102267.0,153.0,971.0,-164.0,6.5,-49.25,2.25,6.5625,-0.75,-6.3125,271.9375,9.8125,-97.8125,-0.62371826171875,-0.4222412109375,-0.45697021484375,-0.47308349609375,-14.0,14.0,-32.0,167.0,957.0,-132.0,-53,449,1019,-47.26530905680712,452.263522567743,1017.2576709428379,-6.547293754344871,2.966246107575698,-7.526051393067353,
259,22.299999952316284,0.0820002555847168,12.195083940523473,11.614349800619523,102267.0,165.0,953.0,-130.0,7.5625,-47.75,3.5625,-3.4375,1.1875,2.1875,272.25,9.625,-97.6875,-0.62298583984375,-0.42205810546875,-0.45635986328125,-0.474853515625,0.0,-4.0,0.0,164.0,957.0,-129.0,-61,463,1004,-50.0122472454457,454.41081805419446,1014.6061367542704,-8.622586053080845,4.754201707375849,-9.43639294985874,
260,22.38599967956543,0.08599972724914551,11.627943855018865,11.614402024553558,102267.0,163.0,972.0,-138.0,7.25,-47.75,2.25,0.5625,-1.25,0.375,272.25,9.6875,-97.5625,-0.62274169921875,-0.42095947265625,-0.45709228515625,-0.4754638671875,-2.0,14.0,-11.0,165.0,958.0,-127.0,-97,458,999,-59.40979779635657,455.12865444335563,1011.4849094034164,-16.372759570907,5.030844190637581,-11.504386835094584,
261,22.471999883651733,0.08600020408630371,11.627879382663684,11.614453602319399,102266.25,133.0,960.0,-140.0,7.25,-47.75,2.75,-2.0625,-2.5,0.0,272.375,9.6875,-97.5,-0.622802734375,-0.42059326171875,-0.4566650390625,-0.47607421875,-32.0,2.0,-13.0,165.0,958.0,-127.0,-43,443,1025,-56.127838237085264,452.70292355468456,1014.1879275227332,-12.173565382110176,2.471599011461792,-8.198410661928428,
262,22.56499981880188,0.09299993515014648,10.752695670007947,11.610901932367543,102266.25,187.0,961.0,-134.0,7.5625,-47.375,3.0625,-0.75,-6.1875,2.0,272.8125,9.6875,-97.4375,-0.6241455078125,-0.4178466796875,-0.4552001953125,-0.4781494140625,22.0,2.0,-8.0,165.0,958.0,-125.0,-49,438,1023,-54.70227058966822,449.76233884374767,1015.9503420181866,-10.055891327321971,-0.15339347404163073,-6.1079286239803094,
263,22.64800000190735,0.08300018310546875,12.048166191745565,11.612504414422947,102266.25,173.0,951.0,-121.0,6.875,-48.875,2.75,-0.5625,-3.5,1.6875,273.0625,9.75,-97.4375,-0.6256103515625,-0.41552734375,-0.45416259765625,-0.479248046875,6.0,-6.0,4.0,166.0,958.0,-125.0,-68,454,990,-57.36181647173458,450.6098710749982,1010.7602736145493,-11.748871805309701,0.6446809299320412,-10.452490233797132,
264,22.73199987411499,0.0839998722076416,11.904780015951362,11.61358443876369,102266.25,173.0,959.0,-113.0,6.5,-49.6875,1.5,-0.0625,-2.0625,2.5625,273.125,9.9375,-97.4375,-0.62713623046875,-0.4134521484375,-0.45379638671875,-0.4794921875,2.0,2.0,25.0,169.0,957.0,-125.0,-79,448,1011,-61.68945317738766,450.0878968599986,1010.8082188916395,-14.8112150249721,0.11656340665244824,-9.603698581599422,
265,22.819000005722046,0.08700013160705566,11.494235485948398,11.613129406790357,102269.25,186.0,990.0,-138.0,7.5625,-49.25,1.875,-0.0625,1.625,0.25,273.0,10.0625,-97.5625,-0.62786865234375,-0.41302490234375,-0.45404052734375,-0.47857666015625,11.0,31.0,-12.0,171.0,957.0,-127.0,-59,439,1011,-61.15156254191014,447.8703174879989,1010.8465751133117,-13.194688062549636,-1.855094197971845,-8.830266381608912,
266,22.902999877929688,0.0839998722076416,11.904780015951362,11.614199075132031,102269.25,151.0,962.0,-137.0,5.75,-49.25,2.75,-3.8125,0.0,-1.375,273.0625,9.9375,-97.3125,-0.6263427734375,-0.413330078125,-0.4547119140625,-0.479736328125,-25.0,-1.0,-12.0,169.0,957.0,-123.0,-40,449,1035,-56.92125003352811,448.09625399039913,1015.6772600906494,-8.300904716285126,-1.5051431691120745,-3.7222012376444367,
267,22.990999937057495,0.08800005912780762,11.363628728335758,11.613239995257553,102269.25,168.0,949.0,-106.0,7.25,-48.5625,1.5,-2.3125,-3.0625,1.0625,273.3125,9.875,-97.125,-0.62591552734375,-0.411865234375,-0.45452880859375,-0.481689453125,0.0,-9.0,13.0,168.0,958.0,-120.0,-58,417,1028,-57.13700002682249,441.8770031923193,1018.1418080725196,-7.850516170420419,-6.83108793699989,-1.2791137071618994,
268,23.075999975204468,0.08500003814697266,11.764700602497504,11.613797897727956,102269.25,183.0,966.0,-125.0,5.75,-49.25,1.0625,0.625,0.875,0.0625,273.3125,10.0,-97.0,-0.6260986328125,-0.4105224609375,-0.4549560546875,-0.48211669921875,12.0,8.0,-6.0,170.0,958.0,-118.0,-55,435,1019,-56.709600021457995,440.5016025538555,1018.3134464580157,-6.858852476550374,-7.551044773291723,-1.02513783698152,
269,23.16099977493286,0.08499979972839355,11.76473360167174,11.614351824792061,102269.75,177.0,970.0,-132.0,6.875,-48.875,1.875,-1.0625,0.5,1.875,273.25,10.0,-97.0,-0.6259765625,-0.41021728515625,-0.4552001953125,-0.4822998046875,6.0,11.0,-14.0,170.0,958.0,-118.0,-66,448,1013,-58.5676800171664,442.0012820430844,1017.2507571664127,-8.013926680184063,-5.6110779404907145,-1.9088759676475222,
270,23.245999813079834,0.08500003814697266,11.764700602497504,11.61490158182308,102269.75,176.0,969.0,-105.0,6.875,-48.1875,1.0625,-2.5625,0.5625,-0.1875,273.3125,10.0,-96.875,-0.62542724609375,-0.40972900390625,-0.45574951171875,-0.48291015625,-5.0,7.0,11.0,170.0,958.0,-115.0,-66,439,1014,-60.05414401373313,441.40102563446754,1016.6006057331301,-8.743415224261845,-5.722786382845238,-2.350852963970391,
271,23.33299994468689,0.08700013160705566,11.494235485948398,11.614451662556528,102269.75,166.0,959.0,-120.0,5.75,-48.5625,1.875,-0.6875,1.4375,-2.0,273.3125,9.9375,-96.625,-0.62371826171875,-0.41021728515625,-0.4566650390625,-0.48388671875,-2.0,0.0,-8.0,169.0,959.0,-112.0,-47,446,1026,-57.443315210986505,442.32082050757407,1018.4804845865042,-5.759442209429169,-4.468061738356564,-0.5060389783629853,
272,23.418999910354614,0.08599996566772461,11.627911618751906,11.614501090618148,102269.75,163.0,959.0,-106.0,7.25,-48.5625,1.5,-1.25,1.8125,-1.0625,273.25,9.8125,-96.5,-0.62237548828125,-0.41094970703125,-0.45733642578125,-0.484375,-4.0,0.0,4.0,167.0,959.0,-110.0,-3,438,1002,-46.55465216878921,441.4566564060593,1015.1843876692034,4.433190526276987,-4.897749616834503,-3.4182316974025513,
273,23.50499987602234,0.08599996566772461,11.627911618751906,11.614550156985525,102269.75,169.0,973.0,-122.0,6.5,-49.6875,0.6875,-0.5,1.125,-0.3125,273.1875,9.8125,-96.5,-0.62176513671875,-0.4117431640625,-0.457763671875,-0.48406982421875,2.0,13.0,-11.0,167.0,959.0,-110.0,-29,425,1019,-43.04372173503137,438.16532512484747,1015.9475101353628,7.235343592069491,-7.4675137082775445,-2.4717667712120575,
274,23.592000007629395,0.08700013160705566,11.494235485948398,11.614106473015912,102265.25,164.0,963.0,-110.0,6.5,-48.1875,1.5,-0.0625,-0.875,-0.4375,273.25,9.6875,-96.4375,-0.62127685546875,-0.41204833984375,-0.45770263671875,-0.484619140625,-11.0,-3.0,11.0,166.0,960.0,-109.0,-66,423,1011,-47.6349773880251,435.132260099878,1014.9580081082903,2.614703164299107,-9.576947953112029,-3.157205566929304,
275,23.674999952316284,0.08299994468688965,12.048200800282656,11.61562832328939,102265.25,162.0,964.0,-111.0,6.875,-48.875,-0.0625,-1.75,-0.4375,-1.5,273.3125,9.6875,-96.375,-0.620849609375,-0.41143798828125,-0.457763671875,-0.4854736328125,-2.0,4.0,-4.0,165.0,960.0,-107.0,-73,438,1005,-52.70798191042008,435.70580807990245,1012.9664064866323,-2.2929134196367933,-8.307435925863716,-4.7617323896723605,
276,23.759000062942505,0.0840001106262207,11.904746226463292,11.616650501654906,102265.25,181.0,968.0,-119.0,8.0,-47.375,1.5,-0.75,-2.125,0.3125,273.625,9.5625,-96.25,-0.6204833984375,-0.41131591796875,-0.45703125,-0.48687744140625,7.0,5.0,0.0,163.0,961.0,-106.0,-42,442,1023,-50.56638552833606,436.964646463922,1014.973125189306,-0.15323165481165502,-6.513829693927146,-2.5555892741190736,
277,23.848999977111816,0.08999991416931152,11.11112170750251,11.614742767656521,102265.25,158.0,959.0,-89.0,7.25,-48.1875,-0.0625,-0.5,-0.125,-0.8125,273.75,9.5,-96.1875,-0.6201171875,-0.4110107421875,-0.45672607421875,-0.48773193359375,-3.0,-2.0,15.0,162.0,961.0,-104.0,-36,432,1029,-47.65310842266886,435.9717171711376,1017.7785001514449,2.3510399722425133,-6.861771790363311,0.04134752323002244,
278,23.931999921798706,0.08299994468688965,12.048200800282656,11.616246068377297,102268.75,159.0,975.0,-109.0,8.0,-48.5625,1.0625,1.125,-1.0625,-0.75,273.75,9.5,-96.25,-0.6202392578125,-0.4112548828125,-0.4564208984375,-0.4876708984375,-2.0,13.0,-3.0,161.0,961.0,-105.0,-77,447,1013,-53.522486738135086,438.1773737369101,1016.822800121156,-3.2750796414724253,-4.287202486036863,-0.8484501080299516,
279,24.013999700546265,0.0819997787475586,12.195154856192504,11.618222848301833,102268.75,161.0,964.0,-99.0,6.5,-49.25,0.6875,-1.4375,-0.0625,-0.25,273.8125,9.4375,-96.1875,-0.62017822265625,-0.41107177734375,-0.45648193359375,-0.4879150390625,9.0,6.0,-2.0,161.0,961.0,-105.0,-69,431,1021,-56.61798939050807,436.7418989895281,1017.6582400969248,-5.929658842744175,-5.305037331020766,0.0013811808600769915,
280,24.097999811172485,0.0840001106262207,11.904746226463292,11.619221603204778,102268.75,174.0,957.0,-90.0,7.5625,-48.1875,0.25,1.375,0.0625,-0.3125,273.8125,9.4375,-96.1875,-0.619873046875,-0.41119384765625,-0.45635986328125,-0.48822021484375,13.0,-3.0,13.0,161.0,961.0,-104.0,-58,424,1021,-56.894391512406465,434.19351919162256,1018.32659207754,-5.726443389912411,-7.23256119480096,0.6139300053105357,
281,24.183000087738037,0.08500027656555176,11.764667603508387,11.619732828040666,102268.75,141.0,956.0,-93.0,8.0,-48.1875,0.6875,0.875,1.25,-0.0625,273.8125,9.375,-96.3125,-0.6199951171875,-0.4122314453125,-0.45587158203125,-0.4876708984375,-18.0,-4.0,13.0,160.0,961.0,-106.0,-66,441,1016,-58.71551320992518,435.55481535329807,1017.8612736620321,-6.935223889526191,-5.442483825193882,0.14513502530700967,
282,24.265999794006348,0.08299970626831055,12.048235409018574,11.621198483223157,102268.75,165.0,975.0,-110.0,7.5625,-48.1875,1.0625,0.25,0.5625,1.125,273.75,9.4375,-96.4375,-0.6209716796875,-0.41204833984375,-0.4556884765625,-0.48681640625,3.0,13.0,-1.0,161.0,961.0,-108.0,-45,435,1026,-55.972410567940145,435.4438522826385,1019.4890189296258,-3.8563965786389667,-5.126354578824046,1.6440419074394979,
283,24.3510000705719,0.08500027656555176,11.764667603508387,11.621699280515568,102269.25,156.0,970.0,-109.0,7.5625,-48.5625,0.25,1.625,-0.5,-0.5,273.8125,9.375,-96.5,-0.62109375,-0.4127197265625,-0.4552001953125,-0.48651123046875,-4.0,9.0,0.0,160.0,961.0,-110.0,-15,416,1038,-47.77792845435212,431.5550818261108,1023.1912151437007,3.863758543109096,-8.254382345423783,4.8711939859066415,
284,24.435999870300293,0.08499979972839355,11.76473360167174,11.622196820567831,102269.25,147.0,957.0,-105.0,6.5,-48.875,1.0625,1.125,0.4375,-0.625,273.75,9.375,-96.5625,-0.62103271484375,-0.41339111328125,-0.45501708984375,-0.48614501953125,-12.0,-3.0,5.0,160.0,961.0,-111.0,-72,432,1019,-52.6223427634817,431.64406546088867,1022.3529721149605,-0.8222306375440835,-7.538186010454737,3.7367606926446553,
285,24.51699995994568,0.08100008964538574,12.345665348988488,11.624587040242075,102269.25,161.0,957.0,-113.0,7.25,-48.5625,1.875,1.0625,0.3125,0.875,273.6875,9.4375,-96.5625,-0.62139892578125,-0.4132080078125,-0.45526123046875,-0.485595703125,0.0,-5.0,4.0,161.0,960.0,-111.0,-41,430,1025,-50.297874210785366,431.31525236871096,1022.8823776919685,1.4507586582162224,-7.270320750325917,3.9522916540584365,
286,24.601999759674072,0.08499979972839355,11.76473360167174,11.625071245988376,102269.25,171.0,972.0,-111.0,7.5625,-49.25,1.875,1.375,0.6875,1.0,273.5,9.5,-96.75,-0.62237548828125,-0.4134521484375,-0.45513916015625,-0.48431396484375,9.0,13.0,-12.0,162.0,960.0,-114.0,-39,455,1031,-48.0382993686283,436.0522018949688,1024.5059021535749,3.3859640390019083,-2.4193769594547057,5.118690821263888,
287,24.688999891281128,0.08700013160705566,11.494235485948398,11.624610201458728,102269.0,147.0,966.0,-124.0,7.5625,-48.5625,2.25,0.75,1.625,-0.375,273.4375,9.5,-96.875,-0.6224365234375,-0.414306640625,-0.4552001953125,-0.48345947265625,-5.0,13.0,0.0,162.0,960.0,-115.0,-45,444,1025,-47.43063949490264,437.6417615159751,1024.60472172286,3.6630579056640196,-0.8262354431610044,4.812012493825227,
288,24.771999835968018,0.08299994468688965,12.048200800282656,11.626029465002448,102269.0,163.0,963.0,-121.0,6.5,-48.875,-0.0625,1.4375,0.3125,-1.1875,273.375,9.5,-96.9375,-0.62255859375,-0.41485595703125,-0.4549560546875,-0.48297119140625,1.0,3.0,-3.0,162.0,959.0,-117.0,113,331,1109,-15.344511595922114,416.3134092127801,1041.483777378288,33.14767105787399,-20.549172203218568,20.10038092469304,
289,24.85599994659424,0.0840001106262207,11.904746226463292,11.626971379986614,102269.0,161.0,983.0,-137.0,6.5,-49.25,3.0625,2.5625,-3.0625,-0.6875,273.625,9.375,-97.1875,-0.6236572265625,-0.41583251953125,-0.45281982421875,-0.48272705078125,1.0,23.0,-15.0,160.0,959.0,-121.0,-84,451,999,-29.075609276737694,423.25072737022407,1032.9870219026304,18.00847742224931,-12.607686007512022,10.763969331668378,
290,24.941999912261963,0.08599996566772461,11.627911618751906,11.62697462192799,102269.0,154.0,953.0,-95.0,7.5625,-48.875,0.25,-0.8125,-3.0625,-1.25,273.9375,9.3125,-97.25,-0.624267578125,-0.4154052734375,-0.45147705078125,-0.483642578125,-4.0,-6.0,26.0,158.0,959.0,-122.0,-56,439,1011,-34.460487421390155,426.4005818961793,1028.5896175221044,11.800478350666012,-8.816674471874158,5.997931222502379,
291,25.027999877929688,0.08599996566772461,11.627911618751906,11.626977841589772,102269.0,176.0,956.0,-101.0,6.875,-48.1875,2.75,2.375,2.0,-1.5,273.8125,9.375,-97.125,-0.6241455078125,-0.41473388671875,-0.45220947265625,-0.483642578125,15.0,-3.0,18.0,160.0,959.0,-120.0,-63,422,1020,-40.168389937112124,425.52046551694343,1026.8716940176837,5.781275597107193,-8.925802028881575,3.997949092226804,
292,25.115999937057495,0.08800005912780762,11.363628728335758,11.626055133451706,102266.5,152.0,964.0,-137.0,8.375,-48.875,0.6875,2.125,4.8125,-0.1875,273.375,9.375,-97.3125,-0.6234130859375,-0.41729736328125,-0.45330810546875,-0.4813232421875,-17.0,8.0,-11.0,160.0,959.0,-123.0,-62,444,1006,-44.5347119496897,429.2163724135548,1022.697355214147,1.5155881821645054,-5.004598911013499,0.037563013200286655,
293,25.20199990272522,0.08599996566772461,11.627911618751906,11.62606146857085,102266.5,150.0,972.0,-137.0,8.0,-49.25,2.25,-0.9375,1.875,1.0625,273.3125,9.3125,-97.375,-0.62286376953125,-0.4189453125,-0.453369140625,-0.4805908203125,-8.0,12.0,-13.0,158.0,959.0,-124.0,-66,426,1022,-48.827769559751765,428.57309793084386,1022.5578841713176,-2.4448977815910826,-5.195200084895653,-0.09020462468960773,
294,25.286999940872192,0.08500003814697266,11.764700602497504,11.626527491891133,102266.5,130.0,924.0,-93.0,6.1875,-48.5625,1.5,-6.8125,3.25,-0.8125,273.1875,9.3125,-97.125,-0.62152099609375,-0.4185791015625,-0.4549560546875,-0.48114013671875,-29.0,-35.0,26.0,159.0,960.0,-120.0,-79,443,1016,-54.86221564780142,431.45847834467514,1021.2463073370542,-7.723136420050439,-2.1813556529949607,-1.2713926440541028,
295,25.371000051498413,0.0840001106262207,11.904746226463292,11.627448638256467,102266.5,162.0,960.0,-124.0,7.5625,-47.75,3.0625,-0.25,1.875,0.1875,272.9375,9.4375,-96.875,-0.62017822265625,-0.4180908203125,-0.45709228515625,-0.48126220703125,1.0,0.0,-8.0,161.0,960.0,-116.0,-60,438,1019,-55.88977251824114,432.76678267574016,1020.7970458696434,-8.070380806446517,-0.814113876994337,-1.5853178798936944,
296,25.45699977874756,0.08599972724914551,11.627943855018865,11.627450311215059,102268.5,179.0,978.0,-124.0,7.5625,-48.875,0.6875,1.4375,1.8125,2.0,272.625,9.5625,-96.875,-0.6197509765625,-0.41851806640625,-0.45855712890625,-0.4801025390625,16.0,18.0,-8.0,163.0,959.0,-116.0,-60,448,1022,-56.711818014592914,435.8134261405922,1021.0376366957147,-8.184981297944553,1.9763902265123072,-1.2478350035874763,
