Index,Time,Difference,Hz,AveHz,0x6103 Pressure,0x6103 Acceleration-X,0x6103 Acceleration-Y,0x6103 Acceleration-Z,0x6103 Magnetic-X,0x6103 Magnetic-Y,0x6103 Magnetic-Z,0x6103 Angular-Vel-X,0x6103 Angular-Vel-Y,0x6103 Angular-Vel-Z,0x6103 Heading,0x6103 Roll,0x6103 Pitch,0x6103 Quaternion-X,0x6103 Quaternion-Y,0x6103 Quaternion-Z,0x6103 Quaternion-W,0x6103 Linear-Acceleration-X,0x6103 Linear-Acceleration-Y,0x6103 Linear-Acceleration-Z,0x6103 Gravity-X,0x6103 Gravity-Y,0x6103 Gravity-Z,0x6103 Measured-X,0x6103 Measured-Y,0x6103 Measured-Z,0x6103 Smoothed-X,0x6103 Smoothed-Y,0x6103 Smoothed-Z,0x6103 Velocity-X,0x6103 Velocity-Y,0x6103 Velocity-Z,
0,0.0010001659393310547,0.0010001659393310547,999.8340882002384,0.0,102232.5,-2.0,-240.0,948.0,22.1875,10.0,-38.5625,0.25,-0.125,-0.125,274.6875,-0.5,15.0,0.099365234375,0.085205078125,-0.67144775390625,-0.72943115234375,6.0,14.0,0.0,-8.0,-254.0,947.0,2461,1090,1197,2456.2,1082.0,239.4,92.38466974968802,153.9744495828367,18430.741615065555,
1,0.09999990463256836,0.0989997386932373,10.101036762315315,10.000009536752259,102232.5,-1.0,-239.0,947.0,21.75,10.75,-37.375,-0.125,-0.125,0.125,274.6875,-0.5,15.0,0.099365234375,0.085205078125,-0.67144775390625,-0.72943115234375,6.0,14.0,7.0,-8.0,-254.0,947.0,2457,1103,1189,2456.36,1086.2,429.32000000000005,85.39549495187401,145.38509225389112,17159.290456151724,
2,0.2050001621246338,0.10500025749206543,9.523786168577416,9.75608984535369,102232.5,-1.0,-240.0,954.0,22.5625,10.0,-38.5625,0.375,-0.25,0.0625,274.6875,-0.5,15.0,0.099365234375,0.085205078125,-0.67144775390625,-0.72943115234375,6.0,15.0,2.0,-8.0,-254.0,947.0,2426,1055,1407,2450.2880000000005,1079.96,624.8560000000001,74.3672527601786,129.61445137206343,15981.417806051983,
3,0.34400010108947754,0.13899993896484375,7.194247763324002,8.720927669784821,102234.5,-1.0,-240.0,951.0,22.5625,13.0,-37.375,-0.0625,0.0625,0.0,274.6875,-0.5,15.0,0.099365234375,0.085205078125,-0.67144775390625,-0.72943115234375,7.0,12.0,5.0,-8.0,-254.0,947.0,2452,1069,1324,2450.6304000000005,1077.768,764.6848000000001,68.83064920107533,118.41986470192967,14828.307788422899,
4,0.4660000801086426,0.12199997901916504,8.196722721099071,8.583689511528508,102234.5,-2.0,-239.0,954.0,21.5,11.5,-36.1875,0.0,0.25,-0.0625,274.6875,-0.5,15.0,0.099365234375,0.085205078125,-0.67144775390625,-0.72943115234375,7.0,15.0,8.0,-8.0,-254.0,947.0,2427,1071,1391,2445.9043200000006,1076.4144000000001,889.94784,60.547834929127234,108.44721366148461,13765.587561982646,
5,0.5810003280639648,0.11500024795532227,8.695633424968799,8.60584712002009,102234.5,-1.0,-239.0,946.0,21.5,11.0625,-38.1875,-0.0625,-0.25,-0.125,274.6875,-0.5,15.0,0.099365234375,0.085205078125,-0.67144775390625,-0.72943115234375,8.0,13.0,3.0,-8.0,-254.0,947.0,2465,1095,1196,2449.7234560000006,1080.1315200000001,951.1582720000001,58.44280675210431,102.58562710413005,12746.621607551093,
6,0.695000171661377,0.11399984359741211,8.77194185924919,8.633091392851286,102233.75,-2.0,-240.0,943.0,21.75,10.375,-38.1875,0.1875,-0.1875,0.0,274.6875,-0.5,15.0,0.099365234375,0.085205078125,-0.67144775390625,-0.72943115234375,6.0,13.0,3.0,-8.0,-254.0,947.0,2456,1093,1328,2450.9787648000006,1082.7052160000003,1026.5266176,54.79059580948556,96.42490981611658,11816.038503183247,
7,0.7950000762939453,0.09999990463256836,10.000009536752259,8.805030601546513,102233.75,-1.0,-240.0,941.0,22.1875,11.5,-38.875,0.25,0.0,0.0625,274.6875,-0.5,15.0,0.099365234375,0.085205078125,-0.67144775390625,-0.72943115234375,7.0,13.0,0.0,-8.0,-254.0,947.0,2432,1074,1309,2447.1830118400007,1080.9641728000004,1083.02129408,47.648987365620314,87.65958721777555,10949.704480813469,
8,0.8919999599456787,0.0969998836517334,10.309290716166029,8.968610268196858,102233.75,-1.0,-239.0,945.0,22.1875,12.25,-37.6875,0.0625,-0.1875,0.125,274.6875,-0.5,15.0,0.099365234375,0.085205078125,-0.67144775390625,-0.72943115234375,7.0,15.0,-1.0,-8.0,-254.0,947.0,2417,1038,1401,2441.146409472001,1072.3713382400003,1146.617035264,39.18806750474781,74.088674726275,10157.060513572376,
9,0.9890003204345703,0.0970003604888916,10.309240037458615,9.10009816381593,102233.75,0.0,-237.0,945.0,22.5625,11.5,-39.375,0.3125,0.0,0.0,274.6875,-0.5,15.0,0.099365234375,0.085205078125,-0.67144775390625,-0.72943115234375,8.0,16.0,5.0,-8.0,-254.0,947.0,2444,1081,1297,2441.717127577601,1074.0970705920004,1176.6936282112001,36.6236288925975,69.7537529297544,9398.841998874828,
10,1.0840001106262207,0.09499979019165039,10.526339036987586,9.225091309467723,102238.0,-3.0,-239.0,943.0,22.1875,11.875,-37.6875,0.1875,-0.1875,-15.9375,274.6875,-0.5,15.0,0.099365234375,0.085205078125,-0.67144775390625,-0.72943115234375,7.0,15.0,5.0,-8.0,-254.0,947.0,2413,1070,1344,2435.973702062081,1073.2776564736005,1210.15490256896,29.14840166369382,63.7185557808715,8702.252468285924,
11,1.1820001602172852,0.09800004959106445,10.204076469071287,9.30625931385482,102238.0,0.0,-239.0,949.0,21.5,9.5625,-36.5625,0.0,-0.125,-0.0625,274.6875,-0.5,15.0,0.099365234375,0.085205078125,-0.67144775390625,-0.72943115234375,8.0,15.0,1.0,-8.0,-254.0,947.0,2404,1052,1448,2429.578961649665,1069.0221251788805,1257.7239220551683,21.87953838264158,55.46859694616007,8069.554667482401,
12,1.2730002403259277,0.09100008010864258,10.989001315231004,9.426549673649415,102238.0,-1.0,-239.0,955.0,22.1875,10.375,-38.0625,-0.375,0.125,-0.0625,274.6875,-0.5,15.0,0.099365234375,0.085205078125,-0.67144775390625,-0.72943115234375,7.0,15.0,8.0,-8.0,-254.0,947.0,2445,1073,1241,2432.6631693197323,1069.8177001431045,1254.3791376441347,22.804525812175005,51.870693204578856,7445.368758383772,
13,1.3650002479553223,0.09200000762939453,10.869564315997886,9.523807793788402,102238.0,-2.0,-238.0,952.0,22.1875,10.375,-38.1875,0.125,0.1875,0.0,274.6875,-0.5,15.0,0.099365234375,0.085205078125,-0.67144775390625,-0.72943115234375,6.0,15.0,5.0,-8.0,-254.0,947.0,2425,1066,1372,2431.1305354557862,1069.0541601144837,1277.903310115308,19.765829523145566,47.23760007425846,6891.764071923737,
14,1.4519999027252197,0.08699965476989746,11.49429848480281,9.641873924181244,102229.25,-1.0,-238.0,948.0,22.1875,12.25,-38.1875,-0.125,0.0,0.0625,274.6875,-0.5,15.0,0.099365234375,0.085205078125,-0.67144775390625,-0.72943115234375,7.0,16.0,1.0,-8.0,-254.0,947.0,2466,1106,1155,2438.104428364629,1076.443328091587,1253.3226480922463,24.4161811654004,50.14016914434489,6339.342853484581,
15,1.5429999828338623,0.09100008010864258,10.989001315231004,9.721322207956938,102229.25,-1.0,-238.0,943.0,22.1875,12.5625,-37.375,-0.0625,0.25,-0.0625,274.6875,-0.5,15.0,0.099365234375,0.085205078125,-0.67144775390625,-0.72943115234375,7.0,15.0,-3.0,-8.0,-254.0,947.0,2422,1077,1302,2434.883542691703,1076.5546624732697,1263.058118473797,19.81077281467335,46.37358205256934,5859.451152221967,
16,1.6359999179840088,0.09299993515014648,10.752695670007947,9.779951590533265,102229.25,0.0,-241.0,942.0,22.1875,11.875,-37.6875,-0.125,0.25,-0.125,274.6875,-0.5,15.0,0.099365234375,0.085205078125,-0.67144775390625,-0.72943115234375,8.0,13.0,-4.0,-8.0,-254.0,947.0,2465,1071,1319,2440.9068341533625,1075.4437299786157,1274.2464947790377,23.272373049405097,41.883011269601354,5417.536914320663,
17,1.7300002574920654,0.09400033950805664,10.638259449204345,9.82658813279279,102229.25,0.0,-237.0,949.0,21.5,11.875,-38.5625,0.0625,-0.1875,-0.0625,274.6875,-0.5,15.0,0.099365234375,0.085205078125,-0.67144775390625,-0.72943115234375,7.0,16.0,2.0,-8.0,-254.0,947.0,2396,1042,1504,2431.92546732269,1068.7549839828926,1320.1971958232302,14.123349812006715,33.17896002433269,5038.0269038457045,
18,1.8199999332427979,0.08999967575073242,11.111151142029108,9.890110252876973,102233.5,0.0,-241.0,951.0,22.1875,11.875,-37.6875,-0.0625,0.1875,-0.125,274.6875,-0.5,15.0,0.099365234375,0.085205078125,-0.67144775390625,-0.72943115234375,5.0,16.0,11.0,-8.0,-254.0,947.0,2440,1060,1349,2433.540373858152,1067.0039871863141,1325.9577566585842,14.41749911235646,29.126099668147717,4655.02732983163,
19,1.9110000133514404,0.09100008010864258,10.989001315231004,9.942438444402995,102233.5,-1.0,-240.0,945.0,21.75,11.0625,-38.0625,-0.1875,0.125,0.0,274.6875,-0.5,15.0,0.099365234375,0.085205078125,-0.67144775390625,-0.72943115234375,8.0,15.0,7.0,-8.0,-254.0,947.0,2459,1067,1266,2438.632299086522,1067.0031897490514,1313.9662053268676,17.61590000413922,26.88271523968745,4286.443537086191,
20,2.003000020980835,0.09200000762939453,10.869564315997886,9.985022361710381,102233.5,-1.0,-237.0,946.0,21.5,10.75,-38.5625,0.0,-0.0625,0.0,274.6875,-0.5,15.0,0.099365234375,0.085205078125,-0.67144775390625,-0.72943115234375,6.0,13.0,4.0,-8.0,-254.0,947.0,2459,1080,1244,2442.705839269218,1069.6025517992412,1299.972964261494,19.66885144356091,26.988299006084308,3944.675651331855,
21,2.1050002574920654,0.10200023651123047,9.803898835959048,9.976245810544352,102233.5,-3.0,-239.0,947.0,21.5,11.875,-39.0,-0.1875,0.0,0.125,274.6875,-0.5,15.0,0.099365234375,0.085205078125,-0.67144775390625,-0.72943115234375,6.0,15.0,2.0,-8.0,-254.0,947.0,2450,1062,1328,2444.1646714153744,1068.082041439393,1305.5783714091954,19.255622576433105,23.76236639209838,3645.167149214305,
22,2.2150001525878906,0.1099998950958252,9.090917760683872,9.932279225487342,102235.0,-1.0,-239.0,953.0,21.0625,9.5625,-37.6875,-0.1875,0.125,0.125,274.6875,-0.5,15.0,0.099365234375,0.085205078125,-0.67144775390625,-0.72943115234375,6.0,15.0,5.0,-8.0,-254.0,947.0,2457,1047,1345,2446.7317371322997,1063.8656331515144,1313.4626971273563,19.56988735359835,18.98117556363297,3370.0083119908763,
23,2.315000057220459,0.09999990463256836,10.000009536752259,9.93520493801426,102235.0,0.0,-238.0,953.0,21.5,10.0,-38.1875,-0.125,0.25,-0.0625,274.6875,-0.5,15.0,0.099365234375,0.085205078125,-0.67144775390625,-0.72943115234375,7.0,15.0,6.0,-8.0,-254.0,947.0,2417,1065,1319,2440.78538970584,1064.0925065212116,1314.570157701885,13.484314142416338,17.69431770649995,3111.3704174232075,
24,2.4050002098083496,0.09000015258789062,11.111092273131861,9.979209108639754,102235.0,0.0,-239.0,947.0,22.1875,12.5625,-38.875,0.1875,0.125,0.0,274.6875,-0.5,15.0,0.099365234375,0.085205078125,-0.67144775390625,-0.72943115234375,9.0,14.0,0.0,-8.0,-254.0,947.0,2457,1093,1300,2444.028311764672,1069.8740052169692,1311.656126161508,15.220517233180024,21.278240185487125,2869.301783635061,
25,2.494000196456909,0.08899998664855957,11.235956741755135,10.024056948959405,102235.0,-1.0,-238.0,940.0,21.75,11.875,-38.1875,0.0,-0.0625,0.125,274.6875,-0.5,15.0,0.099365234375,0.085205078125,-0.67144775390625,-0.72943115234375,7.0,16.0,3.0,-8.0,-254.0,947.0,2460,1097,1316,2447.2226494117376,1075.2992041735754,1312.5249009292065,16.812178257041506,24.333527852176488,2649.117183004692,
26,2.5860002040863037,0.09200000762939453,10.869564315997886,10.054136870877173,102238.25,0.0,-237.0,954.0,22.5625,12.5625,-37.6875,-0.25,0.0625,0.0625,274.6875,-0.5,15.0,0.099365234375,0.085205078125,-0.67144775390625,-0.72943115234375,8.0,15.0,-3.0,-8.0,-254.0,947.0,2435,1073,1379,2444.77811952939,1074.8393633388605,1325.8199207433652,13.471675473300564,22.07497945389861,2456.2625125306704,
27,2.6760001182556152,0.08999991416931152,11.11112170750251,10.089685652779528,102238.25,-2.0,-238.0,956.0,21.75,11.875,-37.375,-0.1875,-0.0625,0.0625,274.6875,-0.5,15.0,0.099365234375,0.085205078125,-0.67144775390625,-0.72943115234375,6.0,15.0,9.0,-8.0,-254.0,947.0,2448,1073,1333,2445.422495623512,1074.4714906710883,1327.2559365946922,12.985656534810392,20.060470231143427,2268.3588915769546,
28,2.7660000324249268,0.08999991416931152,11.11112170750251,10.122921067160169,102238.25,0.0,-238.0,952.0,23.0,10.75,-37.375,0.375,-0.375,-0.0625,274.6875,-0.5,15.0,0.099365234375,0.085205078125,-0.67144775390625,-0.72943115234375,8.0,15.0,5.0,-8.0,-254.0,947.0,2419,1066,1389,2440.13799649881,1072.7771925368706,1339.6047492757539,7.464574085422859,17.066246459432698,2104.260362294996,
29,2.8559999465942383,0.08999991416931152,11.11112170750251,10.154061814525702,102238.25,1.0,-237.0,946.0,22.5625,11.5,-39.0,0.125,-0.0625,0.0,274.6875,-0.5,15.0,0.099365234375,0.085205078125,-0.67144775390625,-0.72943115234375,10.0,16.0,0.0,-8.0,-254.0,947.0,2406,1077,1481,2433.310397199048,1073.6217540294965,1367.8837994206033,1.048405798037357,16.474715448177157,1966.4266359290446,
30,2.9509999752044678,0.09500002861022949,10.526312619366108,10.16604549375551,102232.25,0.0,-236.0,941.0,21.5,11.5,-38.5625,-0.25,0.0625,-0.0625,274.6875,-0.5,15.0,0.099365234375,0.085205078125,-0.67144775390625,-0.72943115234375,8.0,17.0,-5.0,-8.0,-254.0,947.0,2380,1070,1406,2422.6483177592386,1072.8974032235974,1375.5070395364828,-7.674214812819745,14.619057145435754,1821.1906198271909,
31,3.0380001068115234,0.08700013160705566,11.494235485948398,10.204081273892868,102232.25,0.0,-236.0,940.0,22.1875,11.0625,-38.1875,-0.125,-0.0625,0.0625,274.6875,-0.5,15.0,0.099365234375,0.085205078125,-0.67144775390625,-0.72943115234375,8.0,17.0,-6.0,-8.0,-254.0,947.0,2673,1279,396,2472.718654207391,1114.117922578878,1179.6056316291863,37.23175805343847,49.97586318208431,1507.5751996828192,
32,3.129000186920166,0.09100008010864258,10.989001315231004,10.226908944833648,102232.25,0.0,-237.0,957.0,21.75,11.875,-39.0,0.0625,-0.0625,0.0,274.6875,-0.5,15.0,0.099365234375,0.085205078125,-0.67144775390625,-0.72943115234375,8.0,16.0,10.0,-8.0,-254.0,947.0,2496,1143,907,2477.3749233659128,1119.8943380631026,1125.084505303349,38.30482927216777,51.01545359328059,1345.3586891817495,
33,3.2170002460479736,0.08800005912780762,11.363628728335758,10.258003567310851,102232.25,-87.0,-222.0,943.0,21.0625,11.875,-37.6875,17.125,-3.625,35.4375,274.125,-0.625,14.8125,0.09844970703125,0.0838623046875,-0.6754150390625,-0.72601318359375,-76.0,28.0,-4.0,-10.0,-251.0,947.0,2496,1106,701,2481.0999386927306,1117.1154704504822,1040.2676042426792,38.61474363917233,44.65575613930184,1167.5513315520639,
34,3.30400013923645,0.08699989318847656,11.494266985289281,10.290556467063997,102232.25,84.0,-165.0,914.0,22.1875,10.375,-38.1875,13.625,14.5625,-69.0625,274.6875,-0.9375,14.5,0.0986328125,0.0794677734375,-0.6719970703125,-0.7296142578125,100.0,80.0,-35.0,-16.0,-245.0,949.0,2546,1138,733,2494.079950954185,1121.2923763603858,978.8140833941435,47.129479312178304,44.914069237542144,1023.2599144844835,
35,3.388000011444092,0.0839998722076416,11.904780015951362,10.330578477501746,102234.25,-59.0,-149.0,949.0,22.5625,11.0625,-37.375,-43.625,21.6875,-5.0,277.0625,-1.8125,14.9375,0.10858154296875,0.07391357421875,-0.65625,-0.7430419921875,-105.0,121.0,-17.0,-35.0,-257.0,945.0,2568,1139,911,2508.863960763348,1124.8339010883087,965.2512667153148,57.05253901408581,44.70208851238844,932.0363001994021,
36,3.4730002880096436,0.08500027656555176,11.764667603508387,10.365677228501294,102234.25,-236.0,-247.0,701.0,23.25,14.0625,-36.5625,-24.0,211.375,15.5,279.75,-11.4375,17.75,0.18170166015625,0.02069091796875,-0.63348388671875,-0.7518310546875,28.0,14.0,-156.0,-224.0,-296.0,907.0,2476,1052,1173,2502.2911686106786,1110.267120870647,1006.801013372252,46.705336462462085,28.064281493744833,897.9085648830696,
37,3.557000160217285,0.0839998722076416,11.904780015951362,10.402023709141412,102234.25,-337.0,-257.0,920.0,31.5,15.5625,-30.875,-51.0,91.25,-77.1875,284.0625,-19.625,23.25,0.259033203125,-0.0191650390625,-0.59375,-0.7615966796875,-15.0,95.0,63.0,-321.0,-352.0,856.0,2457,1008,1164,2493.232934888543,1089.8136966965176,1038.2408106978016,34.80563201062988,7.154331135548169,857.5894634468941,
38,3.6460001468658447,0.08899998664855957,11.235956741755135,10.422380271340735,102234.25,-262.0,369.0,806.0,34.375,19.25,-25.0625,-83.625,-21.875,-65.375,287.5,-23.125,30.75,0.323486328125,-0.02099609375,-0.55908203125,-0.76312255859375,94.0,97.0,38.0,-386.0,-461.0,774.0,2408,996,1199,2476.1863479108342,1071.0509573572142,1070.3926485582413,17.377425377351692,-9.629486585028527,819.3718375328058,
39,3.7310001850128174,0.08500003814697266,11.764700602497504,10.45296115413246,102233.25,-472.0,-567.0,276.0,33.5,26.0,-21.1875,-181.3125,63.375,38.25,286.625,-24.6875,43.6875,0.41357421875,0.02191162109375,-0.54376220703125,-0.72991943359375,-62.0,47.0,-367.0,-409.0,-615.0,644.0,2388,1085,1321,2458.5490783286673,1073.8407658857714,1120.514118846593,0.062079525156381266,-6.36077893807011,801.684341103636,
40,3.821000099182129,0.08999991416931152,11.11112170750251,10.468463481213165,102233.25,-359.0,-1073.0,1005.0,36.0625,26.25,-14.375,56.4375,46.625,-28.25,290.1875,-28.6875,52.75,0.48455810546875,0.0028076171875,-0.50048828125,-0.71746826171875,112.0,-388.0,485.0,-471.0,-684.0,520.0,2394,1012,928,2445.639262662934,1061.4726127086171,1082.0112950772746,-10.987775645701303,-16.452651213965083,707.013310642933,
41,3.9060001373291016,0.08500003814697266,11.764700602497504,10.496671417947145,102233.25,-249.0,-523.0,734.0,37.1875,30.25,-9.5,236.75,136.875,-169.5625,309.5625,-29.3125,47.625,0.44439697265625,-0.09478759765625,-0.37921142578125,-0.80609130859375,313.0,-7.0,253.0,-480.0,-632.0,575.0,2357,922,1625,2427.911410130347,1033.5780901668938,1190.6090360618196,-26.20105847855792,-40.454941444270176,750.9500187003144,
42,3.991000175476074,0.08500003814697266,11.764700602497504,10.52367781341677,102233.25,21.0,-715.0,745.0,31.75,35.75,-10.875,95.3125,-3.8125,-166.625,330.375,-19.5625,43.3125,0.38739013671875,-0.08673095703125,-0.2342529296875,-0.887451171875,384.0,-59.0,74.0,-328.0,-634.0,671.0,2258,1031,1573,2393.929128104278,1033.062472133515,1267.0872288494556,-54.9675127603369,-37.807000020733554,762.4070813994201,
43,4.0920000076293945,0.10099983215332031,9.901006552980945,10.508308875813286,102233.25,206.0,-439.0,759.0,20.875,39.0,-16.1875,170.5625,-75.875,-151.75,342.4375,-10.25,36.1875,0.3028564453125,-0.03826904296875,-0.1346435546875,-0.94268798828125,386.0,45.0,37.0,-150.0,-549.0,797.0,1983,1086,2088,2311.743302483422,1043.649977706812,1431.2697830795646,-113.39163892642753,-26.824184940445015,828.8708221211091,
44,4.17900013923645,0.08700013160705566,11.494235485948398,10.528834298636633,102233.25,183.0,-302.0,817.0,12.5,36.75,-28.0625,136.75,-1.25,-31.4375,350.0,-4.875,23.5,0.20654296875,-0.02581787109375,-0.08502197265625,-0.97442626953125,267.0,87.0,-78.0,-83.0,-390.0,895.0,2184,1216,1471,2286.194641986738,1078.1199821654498,1439.2158264636519,-127.27248137674906,5.749166130563296,772.0804632433299,
45,4.269000291824341,0.09000015258789062,11.111092273131861,10.54110960970898,102233.25,208.0,-234.0,873.0,10.5625,35.25,-31.25,45.625,-137.5625,24.5,347.0,2.375,18.0,0.15325927734375,0.03863525390625,-0.11163330078125,-0.9810791015625,167.0,68.0,-57.0,40.0,-303.0,931.0,1950,1247,1600,2218.9557135893906,1111.8959857323598,1471.3726611709214,-174.99904151898585,34.20367884172669,740.1421795122063,
46,4.354000091552734,0.08499979972839355,11.76473360167174,10.564997481108312,102233.25,183.0,-465.0,1184.0,4.875,31.0625,-34.75,84.0,-48.875,87.9375,340.1875,7.5625,13.1875,0.10101318359375,0.08551025390625,-0.16998291015625,-0.97650146484375,58.0,-208.0,183.0,130.0,-222.0,946.0,1983,1313,1501,2171.7645708715127,1152.116788585888,1477.2981289367372,-204.2738394494654,68.0053969438317,688.5190210189853,
47,4.439000129699707,0.08500003814697266,11.764700602497504,10.587969954211173,102233.25,188.0,-357.0,1051.0,4.1875,24.25,-38.875,43.4375,-81.6875,96.875,328.25,10.0625,9.875,0.05810546875,0.10821533203125,-0.27130126953125,-0.95465087890625,16.0,-191.0,100.0,171.0,-166.0,951.0,2035,1241,1518,2144.41165669721,1169.8934308687103,1485.4385031493898,-213.32326494357542,78.87252069063963,642.877274436643,
48,4.546000242233276,0.10700011253356934,9.345784563415933,10.558732389424474,102231.75,265.0,-128.0,960.0,2.375,22.0625,-41.0,2.875,-116.8125,128.75,315.25,16.8125,11.9375,0.0372314453125,0.17431640625,-0.3741455078125,-0.91009521484375,-18.0,66.0,41.0,283.0,-194.0,918.0,1870,1488,1585,2089.5293253577684,1233.5147446949682,1505.350802519512,-236.39209381072556,118.58285073240984,607.7051209308277,
49,4.645000219345093,0.0989999771118164,10.101012436301284,10.548976896907144,102231.75,247.0,-87.0,922.0,-0.1875,23.1875,-41.875,49.6875,3.4375,92.875,303.375,19.3125,13.25,0.01727294921875,0.20147705078125,-0.46405029296875,-0.8624267578125,-77.0,125.0,22.0,325.0,-212.0,900.0,1874,1506,1611,2046.4234602862148,1288.0117957559746,1526.4806420156096,-251.71669428302684,151.83857629520514,577.3461500267432,
50,4.746000051498413,0.10099983215332031,9.901006552980945,10.535187412021612,102231.75,163.0,-25.0,767.0,0.5,20.0625,-42.75,-9.875,-38.25,111.125,293.4375,19.875,14.125,0.00286865234375,0.2098388671875,-0.5361328125,-0.817626953125,-170.0,199.0,-126.0,333.0,-225.0,894.0,1041,1624,2458,1845.338768228972,1355.2094366047797,1712.784513612488,-385.63695456297836,191.3769756644181,674.9243771962177,
51,4.8440001010894775,0.09800004959106445,10.204076469071287,10.528488632469154,102227.75,103.0,-118.0,652.0,1.5625,20.6875,-42.1875,46.9375,56.75,46.25,286.125,16.9375,14.5625,0.0087890625,0.1927490234375,-0.58941650390625,-0.784423828125,-182.0,117.0,-255.0,286.0,-236.0,907.0,1183,1815,2177,1712.8710145831778,1447.1675492838237,1805.6276108899906,-460.0246628289881,248.8937147953477,695.9033110989787,
52,4.942000150680542,0.09800004959106445,10.204076469071287,10.522055527019623,102227.75,22.0,-101.0,877.0,6.25,17.5625,-43.875,-30.75,116.375,75.625,283.0,4.5625,13.6875,0.06829833984375,0.1055908203125,-0.6171875,-0.7767333984375,-55.0,129.0,-71.0,78.0,-231.0,949.0,1392,1894,1640,1648.6968116665425,1536.534039427059,1772.5020887119927,-475.0253262816904,299.94539119405,616.2915733179274,
53,5.04200005531311,0.09999990463256836,10.000009536752259,10.511701590354043,102227.75,-170.0,-288.0,892.0,18.5,17.875,-41.75,34.5,10.5,3.0625,281.75,-5.9375,13.0625,0.12103271484375,0.03082275390625,-0.6258544921875,-0.76983642578125,-68.0,-67.0,-57.0,-101.0,-220.0,950.0,1212,1915,1882,1561.3574493332342,1612.2272315416474,1794.4016709695943,-505.699749290555,335.1334095841172,585.6998165923189,
54,5.140000104904175,0.09800004959106445,10.204076469071287,10.505836361457959,102227.75,-52.0,-273.0,1145.0,20.5625,13.375,-38.875,-1.5625,35.1875,-85.25,287.75,-5.4375,8.0,0.084716796875,0.002685546875,-0.5872802734375,-0.804931640625,33.0,-136.0,130.0,-93.0,-136.0,966.0,1675,2262,928,1584.0859594665874,1742.1817852333181,1621.1213367756754,-448.9027625271649,411.4352347059257,404.45216560073527,
55,5.305000305175781,0.06700015068054199,14.925339567787232,10.367577160427246,102220.75,-415.0,-457.0,1400.0,19.875,20.875,-38.5625,37.625,35.0,-100.25,308.1875,-4.0625,15.8125,0.13970947265625,0.0274658203125,-0.43243408203125,-0.890380859375,-345.0,-189.0,459.0,-70.0,-267.0,940.0,1363,2298,1840,1539.86876757327,1853.3454281866548,1664.8970694205404,-465.15390830068964,507.50966577122165,423.61865979008115,
56,5.424000024795532,0.11899971961975098,8.403381144051242,10.324483728613373,102220.75,-221.0,45.0,415.0,22.5,23.25,-35.375,65.8125,17.125,-38.75,313.5625,-13.75,11.3125,0.13623046875,-0.07281494140625,-0.38946533203125,-0.90802001953125,12.0,232.0,-518.0,-233.0,-186.0,933.0,1315,2404,1475,1494.895014058616,1963.4763425493238,1626.9176555364324,-458.4377899657299,539.6927692900305,366.4250502180659,
57,5.531000137329102,0.10700011253356934,9.345784563415933,10.305550277481114,102220.75,108.0,-74.0,768.0,22.0625,20.0,-38.1875,-5.3125,-62.875,27.5625,313.5625,-9.1875,9.4375,0.10699462890625,-0.0418701171875,-0.39141845703125,-0.91302490234375,265.0,85.0,-185.0,-157.0,-159.0,954.0,1229,2524,1509,1441.7160112468928,2075.581074039459,1603.334124429146,-461.4070419136942,578.8098395712705,321.2390130763294,
58,5.629000186920166,0.09800004959106445,10.204076469071287,10.303783633685388,102232.75,-193.0,-1.0,1111.0,20.5625,20.75,-38.75,68.6875,49.9375,65.0,309.125,-9.8125,7.5625,0.09613037109375,-0.0496826171875,-0.42657470703125,-0.89794921875,-25.0,126.0,153.0,-167.0,-127.0,957.0,1314,2697,1131,1416.1728089975143,2199.864859231567,1508.867299543317,-445.9483484406959,631.892978017657,222.27971279019886,
59,5.7200000286102295,0.09099984169006348,10.989030106292951,10.314685263093441,102232.75,-204.0,-109.0,1217.0,24.75,14.0625,-39.0625,0.6875,27.125,68.875,304.1875,-14.0,3.0,0.080078125,-0.0958251953125,-0.46392822265625,-0.87701416015625,32.0,-58.0,267.0,-237.0,-50.0,950.0,1230,2670,1368,1378.9382471980114,2293.8918873852535,1480.6938396346536,-443.1165480976833,662.7986886356283,181.3250519719787,
60,5.838000059127808,0.11800003051757812,8.474574079462062,10.277492187789383,102232.75,-267.0,-29.0,1129.0,26.875,10.6875,-38.25,7.6875,-48.75,-3.125,300.6875,-14.75,-4.3125,0.03143310546875,-0.1300048828125,-0.49029541015625,-0.8612060546875,-17.0,-101.0,183.0,-249.0,71.0,945.0,1074,2843,1409,1317.950597758409,2403.713509908203,1466.3550717077228,-448.793589083491,683.426433231689,158.00637174275212,
61,6.059000015258789,0.0839998722076416,11.904780015951362,10.067667906647893,102227.75,-263.0,-173.0,885.0,21.0,14.5,-41.5,4.3125,-28.6875,51.3125,296.375,-1.75,6.25,0.0548095703125,0.0157470703125,-0.5262451171875,-0.848388671875,-233.0,-65.0,-88.0,-30.0,-107.0,974.0,1100,2957,1306,1274.3604782067273,2514.3708079265625,1434.2840573661783,-454.19415310221007,732.2386087080959,116.44140658047309,
62,6.371000051498413,0.09299993515014648,10.752695670007947,9.731596217051992,102232.5,-47.0,-193.0,1473.0,26.875,11.1875,-40.25,-12.3125,-7.875,-38.5625,296.0,-11.5,5.5625,0.0938720703125,-0.05987548828125,-0.5262451171875,-0.843017578125,148.0,-100.0,517.0,-195.0,-93.0,956.0,635,3206,1856,1146.488382565382,2652.69664634125,1518.6272458929427,-525.0938724553902,790.3841604080034,177.3079994048897,
63,6.4730002880096436,0.10200023651123047,9.803898835959048,9.732735547177244,0,0,0,0,0,0,0,0,0,0,0,0,0,0,0,0,0,0,0,0,0,0,0,755,3391,1323,1068.1907060523056,2800.3573170730006,1479.5017967143544,-543.7685767474384,840.9936514551907,134.11947363502128,
64,7.187000036239624,0.4830000400543213,2.070393203047216,8.904967257170911,102233.0,9.0,-14.0,1022.0,24.375,14.5,-39.875,-35.9375,-52.125,-35.875,301.5,-6.0,6.375,0.07421875,-0.0185546875,-0.48687744140625,-0.8701171875,137.0,155.0,33.0,-102.0,-108.0,969.0,440,4001,1368,942.5525648418445,3040.4858536584006,1457.2014373714837,-521.9276635655187,814.5184980234558,120.23714470963242,
65,7.308000087738037,0.12100005149841309,8.264459292507945,8.894362235854695,102233.0,138.0,6.0,749.0,19.875,16.375,-40.0,-18.8125,-54.625,17.1875,302.9375,0.0,9.75,0.07501220703125,0.040283203125,-0.47589111328125,-0.8753662109375,110.0,163.0,-236.0,0.0,-166.0,966.0,347,4077,1348,823.4420518734756,3247.788682926721,1435.3611498971873,-557.5368003727093,883.720499791301,97.08052572585517,
66,7.427000045776367,0.11899995803833008,8.403364307724363,8.886495165370746,102233.0,-94.0,-161.0,877.0,14.6875,17.875,-43.5,-3.5,-16.8125,95.3125,293.4375,2.9375,11.25,0.06793212890625,0.07537841796875,-0.54583740234375,-0.83172607421875,-141.0,42.0,-78.0,50.0,-191.0,960.0,259,4119,1293,710.5536414987805,3422.030946341377,1406.8889199177497,-587.6519345083917,928.4190550376095,71.18211111483389,
67,7.541000127792358,0.11400008201599121,8.771923513701738,8.884763143428613,0,0,0,0,0,0,0,0,0,0,0,0,0,0,0,0,0,0,0,0,0,0,0,199,4150,1515,608.2429131990244,3567.6247570731016,1428.5111359341997,-611.5073005635422,955.270396228857,80.30555729115547,
68,7.667999982833862,0.1269998550415039,7.874024735486487,8.86802297238259,102231.75,167.0,-274.0,859.0,17.6875,17.0,-44.0,-8.3125,12.875,20.3125,284.9375,-0.625,13.75,0.0986328125,0.068359375,-0.60443115234375,-0.78753662109375,178.0,-41.0,-92.0,-11.0,-233.0,952.0,117,4176,1488,509.9943305592195,3689.299805658481,1440.4089087473599,-623.9893447049376,955.4861460727004,81.33564790169417,
69,7.763999938964844,0.09599995613098145,10.416671426762,8.887171630915754,102231.75,168.0,-344.0,755.0,19.5,15.5,-42.0,-9.9375,6.5,18.8125,283.5625,-1.8125,14.0625,0.10662841796875,0.063232421875,-0.61370849609375,-0.77972412109375,199.0,-104.0,-195.0,-31.0,-239.0,950.0,108,4278,1325,429.59546444737566,3807.039844526785,1417.327126997888,-640.428785158248,976.3510788223314,56.55928210827069,
70,7.854000091552734,0.09000015258789062,11.111092273131861,8.912655867586196,102233.5,74.0,-233.0,636.0,20.5625,17.0,-42.75,6.5,15.625,30.75,281.3125,-2.8125,14.4375,0.11328125,0.06048583984375,-0.62872314453125,-0.7669677734375,122.0,11.0,-311.0,-48.0,-245.0,948.0,-41,4342,1199,335.47637155790056,3914.0318756214283,1373.6617015983104,-671.6397449844618,992.7095171616546,14.846083437393702,
71,7.9740002155303955,0.12000012397766113,8.333324723782427,8.903937557177178,102233.5,-377.0,-61.0,1644.0,21.0,15.1875,-42.375,109.1875,-81.3125,-92.75,280.0,-2.6875,9.5625,0.07940673828125,0.03521728515625,-0.64013671875,-0.76336669921875,-330.0,101.0,678.0,-46.0,-163.0,965.0,-256,4514,1311,217.18109724632046,4034.025500497143,1361.1293612786485,-695.8295405484615,993.2667140874335,5.661358282396961,
72,8.062000036239624,0.08799982070922852,11.363659515900926,8.930786365213553,102233.5,-228.0,105.0,831.0,18.75,10.6875,-44.375,-32.875,-4.4375,14.9375,283.5625,3.3125,10.4375,0.05352783203125,0.0794677734375,-0.61572265625,-0.7821044921875,-286.0,284.0,-130.0,57.0,-178.0,962.0,-110,4615,138,151.74487779705638,4150.220400397715,1116.5034890229188,-699.5074745990793,1018.4559216591813,-208.82264062961545,
73,8.151000022888184,0.08899998664855957,11.235956741755135,8.955956299228859,102233.5,-209.0,184.0,802.0,15.75,14.75,-43.1875,49.375,-6.625,44.6875,280.3125,2.75,9.375,0.0474853515625,0.07110595703125,-0.63836669921875,-0.7650146484375,-256.0,344.0,-164.0,47.0,-160.0,966.0,-210,4517,807,79.3959022376451,4223.576320318172,1054.6027912183351,-708.2394659515302,1003.5000593007236,-246.2978416380255,
74,8.249000310897827,0.09800028800964355,10.20405164423187,8.970783999394198,102241.25,-24.0,-19.0,1252.0,18.0,11.0625,-43.1875,15.625,82.875,119.625,271.9375,-3.9375,8.3125,0.07623291015625,0.02545166015625,-0.692626953125,-0.716796875,42.0,122.0,284.0,-67.0,-141.0,967.0,-112,4784,472,41.11672179011609,4335.661056254538,938.0822329746682,-683.7814376055426,1014.2968741544753,-318.8845059647466,
75,8.350000143051147,0.10099983215332031,9.901006552980945,8.982035774264608,102241.25,-231.0,-25.0,1088.0,24.25,7.375,-41.5625,-1.875,2.3125,60.125,263.6875,-7.5625,7.1875,0.0911865234375,0.00250244140625,-0.74176025390625,-0.6644287109375,-102.0,97.0,124.0,-129.0,-122.0,964.0,-478,4759,1300,-62.70662256790714,4420.328845003631,1010.4657863797346,-710.282849098687,1000.7448323493808,-239.14680618790723,
76,8.446000099182129,0.09599995613098145,10.416671426762,8.998342304940238,102241.25,-266.0,3.0,1054.0,26.0625,2.875,-40.375,52.25,-8.125,21.0625,259.125,-9.0625,3.5,0.08062744140625,-0.02716064453125,-0.767822265625,-0.63494873046875,-98.0,38.0,97.0,-155.0,-59.0,966.0,-479,4766,1160,-145.96529805432573,4489.463076002905,1040.3726291037879,-722.371496197734,979.1389200453988,-196.74471104817846,
77,8.538000106811523,0.09200000762939453,10.869564315997886,9.018505391979351,102241.25,-201.0,-72.0,1250.0,25.6875,-1.5625,-40.0,38.5625,-23.0625,8.8125,258.875,-6.125,0.3125,0.04315185546875,-0.03192138671875,-0.77099609375,-0.634521484375,-96.0,-66.0,275.0,-104.0,-5.0,975.0,-518,4699,1230,-220.37223844346062,4531.3704608023245,1078.2981032830303,-729.0242598474654,938.8198793101304,-149.8533979754073,
78,8.630000114440918,0.09200000762939453,10.869564315997886,9.038238582347123,102242.5,-287.0,117.0,955.0,25.0,-5.25,-42.1875,23.4375,26.8125,-15.25,258.3125,-7.5,-1.6875,0.041748046875,-0.052978515625,-0.7742919921875,-0.6302490234375,-159.0,131.0,-9.0,-124.0,25.0,972.0,-460,4603,1187,-268.29779075476847,4545.69636864186,1100.0384826264244,-713.0009920777267,878.5209096050612,-120.11893556370545,
79,8.877000331878662,0.062000274658203125,16.128960807235586,8.899402618731347,102242.5,-279.0,-56.0,1123.0,25.0625,-4.875,-41.25,7.8125,-14.0625,-33.1875,264.0,-5.5625,-2.5,0.02178955078125,-0.049072265625,-0.74188232421875,-0.6683349609375,-183.0,-99.0,148.0,-96.0,42.0,975.0,-270,4797,801,-268.6382326038148,4595.957094913489,1040.2307861011395,-658.5227206272534,873.2951024471998,-185.14674900380686,
80,8.97700023651123,0.09999990463256836,10.000009536752259,8.911662904343505,102238.75,-108.0,-123.0,1098.0,24.375,-2.25,-41.6875,54.75,-19.875,-86.5625,271.1875,-5.0625,-4.25,0.00433349609375,-0.05767822265625,-0.69842529296875,-0.71331787109375,-21.0,-196.0,124.0,-86.0,72.0,974.0,-394,4895,859,-293.71058608305185,4655.765675930791,1003.9846288809117,-627.1222017293469,852.1040308613191,-198.80001700672705,
81,9.081000328063965,0.10400009155273438,9.615376150827128,8.919722175284724,102238.75,-97.0,-74.0,949.0,22.875,-1.875,-43.75,-45.375,-22.125,-112.3125,281.25,-2.8125,-2.875,-0.004150390625,-0.03521728515625,-0.63372802734375,-0.77276611328125,-49.0,-124.0,-28.0,-48.0,50.0,978.0,-474,4754,1129,-329.7684688664415,4675.412540744633,1028.9877031047295,-605.5304703708711,801.0382441284519,-164.98054050085165,
82,9.184000015258789,0.10299968719482422,9.708767349055119,8.928571413737021,102238.75,-76.0,-41.0,832.0,20.5625,4.875,-43.75,19.875,-29.0,-148.25,293.125,-2.4375,-1.1875,0.0029296875,-0.0235595703125,-0.55078125,-0.83428955078125,-34.0,-61.0,-146.0,-41.0,20.0,979.0,-279,5007,875,-319.6147750931532,4741.730032595706,998.1901624837836,-551.3139756577767,788.9356039962905,-175.30051295679755,
83,9.277000188827515,0.09300017356872559,10.752668104011834,8.946857638308408,102238.75,71.0,-86.0,914.0,17.1875,8.5625,-44.5625,-12.5625,-35.5,-106.3125,307.0625,2.875,-1.625,-0.023681640625,0.01336669921875,-0.45318603515625,-0.8909912109375,21.0,-112.0,-36.0,44.0,29.0,979.0,-478,5084,1554,-351.29182007452255,4810.184026076565,1109.352129987027,-535.0899813745679,784.8644190552039,-69.76521729807216,
84,9.371000051498413,0.09399986267089844,10.638313414361951,8.96382451588702,102237.25,59.0,-21.0,858.0,15.0,10.6875,-45.6875,-10.8125,-21.5,-27.75,312.0625,4.0,-0.9375,-0.022216796875,0.02880859375,-0.405517578125,-0.913330078125,-9.0,-38.0,-119.0,69.0,16.0,978.0,-257,5162,1235,-332.43345605961804,4880.547220861252,1134.4817039896216,-478.44022141952985,782.0678791475113,-43.80840168202732,
85,9.46399998664856,0.09299993515014648,10.752695670007947,8.981403224843055,102237.25,41.0,86.0,836.0,13.5,12.0625,-46.0625,-32.9375,-20.0625,32.5,311.5,7.25,1.5625,-0.013427734375,0.0635986328125,-0.409423828125,-0.9100341796875,-82.0,113.0,-135.0,124.0,-27.0,972.0,-377,5216,1616,-341.34676484769443,4947.637776689002,1230.7853631916973,-448.9801658246725,777.3967857975085,39.300188574211035,
86,9.563000202178955,0.09900021553039551,10.100988110404419,8.992993640259954,102237.25,29.0,-97.0,1088.0,10.875,14.25,-47.1875,10.0,29.4375,82.625,303.75,4.3125,2.1875,-0.0010986328125,0.04254150390625,-0.47076416015625,-0.8812255859375,-45.0,-59.0,111.0,74.0,-37.0,977.0,-389,5344,1563,-350.87741187815556,5026.9102213512015,1297.228290553358,-421.8214023862872,779.1934449092994,87.95179394014286,
87,9.651999950408936,0.08899974822998047,11.235986841400297,9.013675968400102,102237.25,97.0,112.0,942.0,15.0,11.5625,-46.375,-44.5625,9.375,-14.125,300.5625,2.6875,5.75,0.0321044921875,0.0455322265625,-0.4949951171875,-0.86712646484375,51.0,211.0,-31.0,46.0,-98.0,974.0,-372,5326,1500,-355.1019295025245,5086.728177080961,1337.7826324426865,-392.99608448432093,770.9483094376301,116.26594579767294,
88,9.815999984741211,0.06299972534179688,15.873085074174993,8.96495518915998,102245.25,292.0,-36.0,813.0,14.1875,18.6875,-44.75,27.25,-29.5,4.3125,304.9375,5.75,8.6875,0.04364013671875,0.07989501953125,-0.45989990234375,-0.88330078125,192.0,110.0,-150.0,99.0,-147.0,964.0,-318,5487,1384,-347.68154360201964,5166.782541664769,1347.0261059541492,-353.66598589452025,809.4299395599635,118.61109596123363,
89,9.910000085830688,0.09400010108947754,10.63828643171471,8.980827369240101,102245.25,105.0,-177.0,864.0,12.25,19.0625,-45.1875,2.8125,-48.625,12.8125,302.625,8.75,7.3125,0.01873779296875,0.0975341796875,-0.47735595703125,-0.873046875,-43.0,-54.0,-96.0,149.0,-123.0,961.0,-861,5746,1821,-450.34523488161574,5282.626033331815,1441.8208847633196,-410.5304680362917,841.9968051253535,187.12900028084917,
90,10.010000228881836,0.10000014305114746,9.999985694905718,8.991008785426713,102245.25,82.0,-237.0,1248.0,9.375,18.6875,-46.75,14.375,-8.0625,5.1875,302.875,9.4375,9.6875,0.0340576171875,0.11285400390625,-0.4747314453125,-0.8721923828125,-97.0,-99.0,386.0,161.0,-163.0,953.0,-451,5711,1441,-450.4761879052926,5368.300826665452,1441.6567078106557,-379.02045568148475,843.1325476274803,172.59365118651226,
91,10.128000020980835,0.11799979209899902,8.474591202338932,8.984992082492829,102235.0,37.0,2.0,1362.0,9.0,20.1875,-45.6875,-42.0625,-17.4375,20.125,303.125,13.3125,8.75,0.01043701171875,0.13824462890625,-0.47113037109375,-0.87109375,-189.0,148.0,419.0,226.0,-152.0,941.0,-300,5766,1270,-420.3809503242341,5447.840661332362,1407.3253662485247,-330.1974282499816,830.1145453591483,136.90124548729733,
92,10.217000246047974,0.08900022506713867,11.23592664227124,9.004599959326264,102235.0,-35.0,26.0,540.0,6.375,17.875,-47.25,-11.625,48.8125,33.3125,300.0,10.75,10.875,0.033935546875,0.1285400390625,-0.4954833984375,-0.8583984375,-217.0,203.0,-406.0,183.0,-182.0,945.0,-481,5780,1433,-432.5047602593873,5514.27252906589,1412.46029299882,-315.26133868206205,823.6703419938437,130.80241542631654,
93,10.306000232696533,0.08899998664855957,11.235956741755135,9.023869386782154,102235.0,107.0,79.0,822.0,9.0,18.25,-45.6875,13.625,-13.5,45.125,297.0,9.0,8.5,0.02166748046875,0.10595703125,-0.51934814453125,-0.84771728515625,-67.0,234.0,-103.0,154.0,-143.0,957.0,-391,5841,1704,-424.20380820750984,5579.618023252712,1470.768234399056,-283.8044919644318,816.7825998986021,171.17683349857617,
94,10.40500020980835,0.0989999771118164,10.101012436301284,9.034118030232253,102235.0,8.0,157.0,1134.0,10.5,16.375,-46.5,61.875,-38.6875,105.75,289.5,11.3125,5.4375,-0.01898193359375,0.10797119140625,-0.5732421875,-0.81201171875,-181.0,256.0,210.0,193.0,-91.0,957.0,-380,5898,1680,-415.3630465660079,5643.2944186021705,1512.6145875192449,-255.0753965500572,803.4164364283359,190.54338838181383,
95,10.496000051498413,0.09099984169006348,10.989030106292951,9.051067028761853,102238.75,16.0,3.0,1046.0,9.0,9.375,-48.5,67.4375,45.1875,170.3125,275.5,10.75,1.75,-0.05169677734375,0.07965087890625,-0.669189453125,-0.73699951171875,-162.0,11.0,40.0,182.0,-29.0,962.0,-267,5825,1753,-385.6904372528063,5679.635534881737,1560.691670015396,-210.32695484092466,772.3035996320727,216.5522265133302,
96,10.585000276565552,0.08900022506713867,11.23592664227124,9.069437646830984,102238.75,61.0,-114.0,961.0,13.0625,0.0,-47.6875,45.125,76.5,88.4375,264.5,5.0625,-0.25,-0.03436279296875,0.02813720703125,-0.7393798828125,-0.67181396484375,-25.0,-118.0,-14.0,86.0,4.0,976.0,-306,5816,1556,-369.7523498022451,5706.9084279053895,1559.753336012317,-180.3426823494025,736.4318118112961,199.06589006591383,
97,10.684000015258789,0.0989997386932373,10.101036762315315,9.078996617508938,102238.75,314.0,2.0,1107.0,17.1875,-2.5625,-46.0625,1.8125,-12.375,-3.9375,262.75,2.3125,-2.4375,-0.029541015625,-0.0029296875,-0.74981689453125,-0.66094970703125,274.0,-40.0,129.0,39.0,42.0,978.0,-134,5900,1221,-322.60187984179606,5745.526742324312,1492.0026688098537,-129.78361126531615,709.7631083524288,131.0427140644111,
98,10.776000022888184,0.09200000762939453,10.869564315997886,9.094283573853783,102238.75,54.0,214.0,896.0,15.6875,-3.0625,-46.75,-29.4375,-10.125,44.4375,260.9375,4.1875,-0.9375,-0.03338623046875,0.0177001953125,-0.75994873046875,-0.64886474609375,-18.0,198.0,-81.0,72.0,16.0,977.0,-108,5953,1367,-279.6815038734369,5787.021393859451,1467.002135047883,-83.86778759466029,689.8405653488871,100.02806703763012,
99,10.873000144958496,0.0970001220703125,10.309265376750039,9.10512265981193,102238.0,-15.0,192.0,871.0,14.5625,-2.0,-46.375,-13.75,5.5625,39.75,257.3125,4.75,1.6875,-0.02313232421875,0.0379638671875,-0.78009033203125,-0.62408447265625,-137.0,249.0,-162.0,81.0,-29.0,976.0,-136,5905,1461,-250.94520309874952,5810.617115087561,1465.8017080383065,-54.59870635117973,655.4534423130457,91.3729907889826,
100,10.978000164031982,0.10500001907348633,9.523807793788402,9.109127209492787,102238.0,204.0,216.0,1161.0,15.25,-2.25,-45.875,-25.75,-14.625,35.3125,254.3125,4.375,3.625,-0.01141357421875,0.04840087890625,-0.7958984375,-0.6033935546875,129.0,278.0,185.0,75.0,-62.0,975.0,152,6135,655,-170.3561624789996,5875.493692070048,1303.6413664306453,8.70401309028054,652.5596750664512,-34.580291745744404,
101,11.081000328063965,0.10300016403198242,9.708722402514733,9.11470056942471,102238.0,83.0,257.0,857.0,14.1875,-0.75,-47.1875,-32.375,1.125,81.6875,248.0625,4.125,7.875,0.008544921875,0.07720947265625,-0.825927734375,-0.55841064453125,13.0,391.0,-111.0,70.0,-134.0,968.0,214,6012,764,-93.48492998319969,5902.794953656039,1195.7130931445163,65.50055627447756,622.7222285745498,-112.60172392459066,
102,11.180000066757202,0.0989997386932373,10.101036762315315,9.123434650352864,102238.0,47.0,172.0,880.0,13.0625,0.6875,-46.6875,-10.125,19.4375,77.3125,239.75,3.0,11.375,0.026611328125,0.099365234375,-0.86248779296875,-0.49554443359375,-4.0,366.0,-79.0,51.0,-193.0,959.0,269,5836,819,-20.98794398655975,5889.435962924831,1120.370474515613,116.84370693594494,564.3822634250906,-162.53136034395055,
103,11.281000137329102,0.10100007057189941,9.900983180879315,9.1303961303192,102245.5,-12.0,-32.0,917.0,13.75,-1.25,-47.1875,-6.375,-21.375,88.5,232.5625,0.625,11.4375,0.03912353515625,0.0924072265625,-0.89202880859375,-0.44073486328125,-24.0,163.0,-43.0,11.0,-195.0,960.0,4,5527,1508,-15.9903551892478,5816.9487703398645,1197.8963796124904,111.65678178416668,465.66235459616433,-90.91257904907602,
104,11.377000331878662,0.09600019454956055,10.416645556731089,9.141249623469658,102245.5,33.0,-453.0,1399.0,13.75,-1.25,-46.375,45.75,-96.125,80.875,224.75,5.5,10.0,-0.01153564453125,0.09869384765625,-0.9200439453125,-0.3790283203125,-60.0,-284.0,437.0,94.0,-169.0,961.0,94,5463,1409,6.007715848601759,5746.159016271892,1240.1171036899923,120.70345997463228,373.02718644984395,-50.04783998677843,
105,11.466000080108643,0.08899974822998047,11.235986841400297,9.157509093529075,102245.5,-79.0,-440.0,993.0,6.0,-4.25,-47.0625,4.875,3.0,131.1875,212.5625,6.3125,8.9375,-0.03131103515625,0.09039306640625,-0.95538330078125,-0.27947998046875,-187.0,-288.0,30.0,108.0,-152.0,962.0,77,5361,1540,20.20617267888141,5669.127213017514,1300.0936829519937,123.69338646330294,277.6584118575702,5.695839956467381,
106,11.559999942779541,0.09399986267089844,10.638313414361951,9.169550218398431,102245.5,-9.0,-370.0,538.0,3.5,-7.6875,-46.5,-31.5,-4.0,64.25,204.4375,5.375,10.9375,-0.0263671875,0.10296630859375,-0.9718017578125,-0.2105712890625,-101.0,-185.0,-420.0,92.0,-185.0,958.0,51,5277,1825,26.364938143105128,5590.701770414011,1405.074946361595,119.21394925418356,192.036502412676,91.25267615442046,
107,11.65499997138977,0.09500002861022949,10.526312619366108,9.180609203145375,102244.25,80.0,-356.0,511.0,2.5625,-6.1875,-48.0,-3.0,20.3125,18.875,201.4375,3.625,12.8125,-0.01055908203125,0.11578369140625,-0.97589111328125,-0.18475341796875,18.0,-138.0,-442.0,62.0,-217.0,954.0,63,5320,1441,33.691950514484105,5536.561416331208,1412.2599570892762,115.97320971621798,133.3675232121961,90.04985861069657,
108,11.746000051498413,0.09100008010864258,10.989001315231004,9.194619404605115,102244.25,-30.0,-306.0,1344.0,4.75,-5.75,-46.5,32.875,31.0,27.6875,199.5,0.0,11.9375,0.0181884765625,0.10284423828125,-0.98016357421875,-0.16851806640625,-29.0,-102.0,385.0,0.0,-203.0,959.0,238,5251,1095,74.55356041158728,5479.449133064967,1348.807965671421,141.61845050550187,74.77248831835698,29.42592017752048,
109,11.842000246047974,0.09600019454956055,10.416645556731089,9.20452607120799,102244.25,18.0,-104.0,1062.0,7.0625,-6.5625,-47.6875,-44.125,23.0,18.625,197.9375,-2.0,13.75,0.03662109375,0.11566162109375,-0.98040771484375,-0.1551513671875,53.0,129.0,111.0,-39.0,-240.0,949.0,254,5216,1598,110.44284832926984,5426.759306451973,1398.6463725371368,159.49997116376997,26.753460600809156,67.13459882013963,
110,11.934000253677368,0.09200000762939453,10.869564315997886,9.217361962608,102244.25,138.0,-52.0,864.0,6.6875,-4.0,-48.0,-15.25,-1.5,23.25,196.6875,-3.125,16.375,0.04815673828125,0.13702392578125,-0.9788818359375,-0.14385986328125,192.0,224.0,-74.0,-53.0,-276.0,939.0,239,5052,1741,136.15427866341588,5351.807445161579,1467.1170980297095,168.73782090100374,-38.03799978672921,119.27225020783959,
111,12.023000001907349,0.08899974822998047,11.235986841400297,9.232304747766014,102240.75,59.0,-177.0,1248.0,7.6875,-3.25,-47.5625,36.625,0.0625,45.4375,193.125,-3.875,14.0,0.04791259765625,0.11712646484375,-0.9854736328125,-0.1134033203125,125.0,59.0,299.0,-66.0,-237.0,949.0,792,5190,611,267.3234229307327,5319.445956129263,1295.8936784237676,269.22874667349527,-63.10729520316326,-38.04924795982228,
112,12.115000009536743,0.09200000762939453,10.869564315997886,9.24473792091088,102240.75,-107.0,-281.0,1116.0,7.25,-5.75,-46.75,26.75,-69.125,25.875,188.375,-1.5625,8.875,0.0196533203125,0.07623291015625,-0.99420166015625,-0.0732421875,-65.0,-119.0,63.0,-27.0,-151.0,968.0,723,4898,732,358.4587383445862,5235.156764903411,1183.1149427390142,324.77442345055795,-128.79441593082856,-129.51034638409715,
113,12.20300006866455,0.08800005912780762,11.363628728335758,9.260017976248875,102240.75,0.0,-154.0,615.0,2.5,-8.0625,-47.1875,17.5,-41.75,-2.6875,186.875,1.4375,10.3125,-0.0072021484375,0.09075927734375,-0.9940185546875,-0.0599365234375,-25.0,21.0,-348.0,24.0,-176.0,964.0,365,4794,1588,359.766990675669,5146.92541192273,1264.0919541912112,300.91151286541714,-196.07962788943763,-48.683212299703726,
114,12.294000148773193,0.09100008010864258,10.989001315231004,9.272815895595702,102240.75,-48.0,-280.0,1184.0,-1.5625,-10.0,-47.6875,16.8125,-23.375,59.5625,183.8125,5.5,8.0625,-0.0458984375,0.0718994140625,-0.995361328125,-0.033203125,-63.0,-218.0,195.0,91.0,-140.0,966.0,357,4796,1621,359.21359254053516,5076.740329538184,1335.473563352969,277.273066826498,-240.36882166472074,15.465165013436781,
115,12.386000156402588,0.09200000762939453,10.869564315997886,9.284676130135042,102236.5,-99.0,-189.0,803.0,-4.1875,-10.25,-47.1875,-39.75,11.5625,36.1875,179.875,4.875,10.125,-0.04296875,0.0885009765625,-0.99517822265625,0.00054931640625,-183.0,-17.0,-157.0,83.0,-172.0,961.0,364,4678,1699,360.1708740324282,4996.992263630547,1408.1788506823752,256.7242436021954,-288.6060807189181,75.12550665638888,
116,12.47700023651123,0.09100008010864258,10.989001315231004,9.297106500050486,102236.5,-168.0,-154.0,818.0,-4.1875,-8.5,-46.75,-8.875,41.5625,-23.125,179.375,2.75,12.3125,-0.02490234375,0.10723876953125,-0.993896484375,0.0048828125,-216.0,54.0,-138.0,47.0,-209.0,956.0,403,4610,1550,368.7366992259426,4919.593810904438,1436.5430805459002,244.2044763972791,-331.8743533114739,93.34132370808283,
117,12.567000150680542,0.08999991416931152,11.11112170750251,9.31009776375821,102236.5,36.0,-132.0,1119.0,-2.0,-5.5,-47.1875,8.875,27.5,-93.125,185.5625,0.5,11.1875,0.00103759765625,0.097412109375,-0.99359130859375,-0.0567626953125,45.0,61.0,176.0,8.0,-189.0,962.0,420,4606,1544,378.9893593807541,4856.875048723551,1458.03446443672,234.17246043473307,-359.97946470154255,104.54113220222445,
118,12.65499997138977,0.08799982070922852,11.363659515900926,9.324377737398072,102236.5,246.0,-116.0,1138.0,2.5,-7.0625,-48.375,-25.8125,10.375,-84.4375,194.4375,0.9375,12.125,0.0048828125,0.1058349609375,-0.9864501953125,-0.125,221.0,83.0,202.0,15.0,-202.0,959.0,272,4549,1635,357.59148750460326,4795.300038978841,1493.4275715493761,197.41800494311897,-386.13928921741547,127.46049684238181,
119,12.746999979019165,0.09200000762939453,10.869564315997886,9.335529943976404,102236.5,40.0,-142.0,1098.0,5.0625,-4.875,-48.75,6.5,-31.5,-38.875,200.0625,2.125,13.5,0.0018310546875,0.11895751953125,-0.9776611328125,-0.1732177734375,3.0,86.0,161.0,30.0,-230.0,952.0,306,4732,1576,347.2731900036826,4782.640031183073,1509.942057239501,173.58085289202378,-367.0024391589141,131.4679439408103,
120,12.838000059127808,0.09100008010864258,10.989001315231004,9.34725030747138,102241.5,73.0,-162.0,742.0,2.5,-3.375,-48.875,-14.5,-31.4375,-36.1875,202.875,6.0625,14.4375,-0.02740478515625,0.1334228515625,-0.970947265625,-0.19683837890625,-30.0,81.0,-202.0,103.0,-243.0,944.0,674,4540,780,412.6185520029461,4734.112024946458,1363.9536457916008,215.50730792880773,-379.8053743193743,-2.1836348391605895,
121,12.926000118255615,0.08800005912780762,11.363628728335758,9.36097778841187,102241.5,76.0,-206.0,944.0,1.375,-3.0,-45.75,11.1875,-20.5625,7.75,203.875,8.9375,14.125,-0.052001953125,0.135498046875,-0.96795654296875,-0.20501708984375,-77.0,30.0,5.0,153.0,-236.0,939.0,362,4550,1640,402.4948416023569,4697.289619957167,1419.1629166332807,190.05500456968707,-382.77994321385245,46.292584571392474,
122,13.014000177383423,0.08800005912780762,11.363628728335758,9.374519620187154,102241.5,-65.0,-226.0,853.0,-0.5,-3.0,-47.25,-4.0625,-2.9375,15.875,202.0,10.0,13.9375,-0.0634765625,0.13482666015625,-0.9705810546875,-0.18896484375,-235.0,6.0,-83.0,170.0,-233.0,937.0,402,4459,1518,402.39587328188554,4649.631695965733,1438.9303333066246,175.33417199559398,-395.00654305993186,60.02453352694816,
123,13.101000308990479,0.08700013160705566,11.494235485948398,9.388596068927045,102241.5,8.0,-278.0,939.0,-1.5625,-4.0625,-47.25,6.5,5.5625,23.4375,200.625,9.375,13.5,-0.06005859375,0.129638671875,-0.97369384765625,-0.17767333984375,-151.0,-51.0,-1.0,159.0,-226.0,940.0,413,4424,1527,404.51669862550847,4604.505356772587,1456.5442666452998,163.71049022809427,-404.53038248078707,70.99196416276999,
124,13.190999984741211,0.08999967575073242,11.111151142029108,9.400348733487828,102240.0,37.0,-300.0,946.0,-0.875,-4.5,-48.0,-1.6875,15.0625,18.1875,199.25,7.5625,13.375,-0.04620361328125,0.1256103515625,-0.97698974609375,-0.16595458984375,-91.0,-74.0,0.0,129.0,-225.0,945.0,564,4478,1196,436.4133589004068,4579.20428541807,1404.4354133162399,178.39424570003806,-395.02809317616493,20.943403343606832,
125,13.279000043869019,0.08800005912780762,11.363628728335758,9.413359408618508,102240.0,56.0,-310.0,1031.0,-0.875,-5.1875,-47.5625,3.6875,35.375,33.9375,197.5,4.9375,13.5,-0.0250244140625,0.1226806640625,-0.98052978515625,-0.151123046875,-41.0,-84.0,91.0,84.0,-228.0,949.0,731,4655,756,495.3306871203255,4594.363428334456,1274.748330652992,216.21051633499755,-351.3466888620974,-94.14535979880344,
126,13.366000175476074,0.08700013160705566,11.494235485948398,9.426903961230279,102240.0,-27.0,-303.0,942.0,1.375,-4.875,-49.5625,-10.5625,34.3125,9.5,195.875,1.6875,13.8125,0.001708984375,0.12127685546875,-0.98309326171875,-0.13726806640625,-57.0,-69.0,-9.0,29.0,-234.0,951.0,814,4568,480,559.0645496962604,4589.090742667566,1115.7986645223937,255.97035249272173,-328.95961660350997,-227.5755438489796,
127,13.531000137329102,0.07500004768371582,13.333324856233688,9.385854608753899,102241.25,66.0,-163.0,1124.0,5.0625,-3.75,-47.1875,7.5,0.0625,-51.125,202.0,1.0625,13.4375,0.0128173828125,0.11676025390625,-0.97479248046875,-0.1895751953125,48.0,64.0,171.0,18.0,-227.0,953.0,406,4594,1558,528.4516397570084,4590.072594134052,1204.2389316179151,204.83140112865235,-302.62169259367056,-119.25361048274519,
128,13.61900019645691,0.08800005912780762,11.363628728335758,9.398634125381701,102241.25,130.0,-126.0,960.0,5.5,-4.0625,-47.1875,-12.3125,-9.25,-25.125,205.625,2.375,13.5625,0.00579833984375,0.1199951171875,-0.96795654296875,-0.22039794921875,105.0,106.0,-14.0,40.0,-230.0,952.0,464,4567,1370,515.5613118056067,4585.458075307242,1237.391145294332,177.7803538627274,-283.3575235244574,-81.06291499949698,
129,13.710000038146973,0.09099984169006348,10.989030106292951,9.409190345810932,102241.25,151.0,-154.0,861.0,5.5,-4.0625,-48.0,2.125,-2.1875,12.0625,205.9375,2.625,14.5,0.00579833984375,0.128173828125,-0.96636962890625,-0.22271728515625,97.0,84.0,-59.0,44.0,-245.0,948.0,538,4552,1120,520.0490494444854,4578.7664602457935,1213.9129162354657,167.8885896850516,-267.201139884563,-94.68729892425074,
130,13.806000232696533,0.09600019454956055,10.416645556731089,9.416195698166298,102241.25,73.0,-197.0,996.0,5.0625,-1.875,-47.1875,-3.625,-9.625,-2.25,205.375,3.1875,14.25,6.103515625e-05,0.1275634765625,-0.96746826171875,-0.2183837890625,18.0,44.0,48.0,54.0,-242.0,948.0,712,4498,774,558.4392395555883,4562.613168196635,1125.9303329883726,185.75323752900456,-259.5829121879358,-157.9655975405762,
131,13.89300012588501,0.08699989318847656,11.494266985289281,9.429208868711147,102241.25,71.0,-205.0,955.0,4.6875,-3.0,-48.75,2.875,-15.0625,-0.25,205.625,4.125,14.3125,-0.0078125,0.1295166015625,-0.96685791015625,-0.21990966796875,0.0,36.0,7.0,70.0,-242.0,947.0,704,4480,742,587.5513916444706,4546.090534557308,1049.1442663906982,197.21619758347018,-254.21852625045688,-213.76241189719,
132,13.979000091552734,0.08599996566772461,11.627911618751906,9.442735470025879,102245.75,39.0,-241.0,891.0,4.0,-3.0,-48.75,-4.375,-2.1875,1.3125,205.1875,4.6875,14.375,-0.01324462890625,0.131103515625,-0.96734619140625,-0.21661376953125,-41.0,1.0,-55.0,80.0,-243.0,946.0,582,4448,1055,586.4411133155766,4526.472427645847,1050.3154131125586,181.0364635619371,-252.20875595278613,-196.25412090687882,
133,14.069000244140625,0.09000015258789062,11.111092273131861,9.453408038385035,102245.75,56.0,-281.0,939.0,4.25,-3.375,-47.1875,-1.75,-2.625,0.75,205.3125,4.75,14.5625,-0.01318359375,0.1331787109375,-0.96685791015625,-0.21746826171875,-25.0,-34.0,-5.0,81.0,-246.0,945.0,535,4488,1183,576.1528906524613,4518.777942116678,1076.8523304900468,158.29452473476516,-239.37173042500535,-158.43878499986658,
134,14.16100025177002,0.09200000762939453,10.869564315997886,9.462608404604117,102245.75,6.0,-279.0,1023.0,3.25,-2.5625,-48.375,-7.6875,4.6875,-12.125,205.75,4.4375,14.8125,-0.00933837890625,0.13519287109375,-0.96551513671875,-0.2222900390625,-67.0,-4.0,78.0,76.0,-251.0,944.0,348,4447,1647,530.5223125219691,4504.422353693342,1190.8818643920376,107.91503954024074,-232.95510954021088,-50.80124439921369,
135,14.245000123977661,0.0839998722076416,11.904780015951362,9.477009394528785,102245.75,102.0,-189.0,916.0,3.25,-1.875,-47.1875,-8.1875,4.375,-26.8125,207.8125,4.5,15.4375,-0.0064697265625,0.14007568359375,-0.96099853515625,-0.2384033203125,24.0,71.0,-25.0,77.0,-260.0,942.0,356,4503,1569,495.6178500175753,4504.137882954674,1266.5054915136302,67.60977552352523,-215.27833134610606,22.4322150761245,
136,14.331000089645386,0.08599996566772461,11.627911618751906,9.489916903863843,102241.25,137.0,-200.0,920.0,3.5625,-1.875,-48.75,0.5625,5.8125,-16.9375,209.625,4.625,15.6875,-0.004638671875,0.14215087890625,-0.956787109375,-0.2535400390625,57.0,64.0,-20.0,79.0,-264.0,940.0,367,4462,1645,469.8942800140602,4495.710306363739,1342.204393210904,39.37224512220067,-206.24752374594942,88.48188518534457,
137,14.419000148773193,0.08800005912780762,11.363628728335758,9.501352284239786,102241.25,120.0,-231.0,958.0,4.6875,0.0,-46.75,-1.1875,1.75,-6.0,210.9375,4.875,15.5,-0.00592041015625,0.14154052734375,-0.95404052734375,-0.2640380859375,44.0,30.0,18.0,84.0,-261.0,941.0,412,4475,1303,458.3154240112482,4491.568245090992,1334.3635145687235,26.209090052750263,-193.990765595972,74.8080158239599,
138,14.517000198364258,0.09800004959106445,10.204076469071287,9.506096170994716,102241.25,43.0,-238.0,939.0,4.0,-1.0625,-48.75,1.625,5.75,-2.0,211.25,4.75,15.375,-0.00439453125,0.1397705078125,-0.95355224609375,-0.26678466796875,-38.0,20.0,-2.0,81.0,-259.0,942.0,401,4450,1464,446.85233920899856,4483.254596072793,1360.2908116549788,15.184285188880978,-185.5856261396235,89.41923600755982,
139,14.61900019645691,0.10199999809265137,9.803921751955851,9.508174165952083,102241.25,87.0,-238.0,927.0,5.0625,-0.375,-48.375,4.5,7.625,-6.4375,212.1875,4.125,15.125,0.00152587890625,0.13653564453125,-0.9517822265625,-0.2747802734375,16.0,16.0,-30.0,71.0,-256.0,943.0,626,4486,775,482.6818713671989,4483.803676858234,1243.2326493239832,41.06287981532714,-170.88103075756297,-5.833483086925966,
140,14.725000143051147,0.10599994659423828,9.433967017247118,9.50763997554643,102249.5,107.0,-245.0,940.0,6.1875,-1.0625,-48.75,2.375,9.875,-2.875,212.875,3.8125,14.9375,0.00433349609375,0.13421630859375,-0.95037841796875,-0.28057861328125,41.0,7.0,-4.0,65.0,-252.0,945.0,547,4437,1075,495.5454970937591,4474.442941486588,1209.5861194591866,47.24537467319365,-164.5229742832338,-29.825664369409594,
141,14.830000162124634,0.10500001907348633,9.523807793788402,9.507754447643883,102249.5,77.0,-225.0,934.0,5.5,-1.5,-46.75,-0.0625,2.4375,-0.875,212.9375,3.6875,15.0625,0.00567626953125,0.13482666015625,-0.9500732421875,-0.2813720703125,13.0,28.0,-10.0,63.0,-254.0,944.0,547,4429,1160,505.83639767500733,4465.354353189271,1199.6688955673494,51.15413987873885,-158.51966880408503,-34.801717745889505,
142,14.93500018119812,0.10500001907348633,9.523807793788402,9.507867310156835,102249.5,55.0,-247.0,949.0,5.75,-1.0625,-48.0,-0.25,0.25,-5.0625,213.25,3.8125,15.0625,0.0048828125,0.13525390625,-0.94927978515625,-0.28375244140625,-8.0,5.0,1.0,66.0,-254.0,944.0,550,4443,1014,514.6691181400058,4460.883482551417,1162.5351164538795,53.69259827245379,-149.5922921783583,-59.35341854934952,
143,15.039999961853027,0.10499978065490723,9.523829419097595,9.507978747519987,102249.75,51.0,-253.0,951.0,5.75,-1.0625,-48.0,2.6875,3.875,-7.75,214.0625,3.75,14.8125,0.0059814453125,0.133056640625,-0.947509765625,-0.2906494140625,-13.0,-2.0,6.0,64.0,-250.0,945.0,292,4400,1770,470.13529451200463,4448.7067860411335,1284.0280931631037,16.900062655253734,-147.00328177543332,34.311830385323105,
144,15.14300012588501,0.10300016403198242,9.708722402514733,9.509344172417363,102249.75,65.0,-239.0,957.0,5.0625,-1.5,-48.375,-0.8125,1.375,-9.8125,215.0,3.75,14.8125,0.007080078125,0.1328125,-0.94537353515625,-0.29840087890625,1.0,11.0,11.0,64.0,-250.0,945.0,393,4424,1472,454.7082356096038,4443.765428832907,1321.622474530483,4.065926338258874,-139.378047516553,59.77431221509542,
145,15.242000102996826,0.0989999771118164,10.101012436301284,9.513187181483527,102249.75,87.0,-193.0,967.0,6.5625,-1.0625,-46.75,1.75,6.1875,-4.875,215.9375,3.75,14.4375,0.00726318359375,0.13006591796875,-0.9429931640625,-0.30615234375,28.0,53.0,4.0,64.0,-244.0,947.0,634,4348,901,490.5665884876831,4424.612343066326,1237.4979796243865,31.64268647445338,-143.5427857869556,-10.258487657258378,
146,15.33400011062622,0.09200000762939453,10.869564315997886,9.521325091084634,102249.75,75.0,-195.0,950.0,7.25,-2.25,-49.1875,-2.0,-4.4375,-1.6875,216.1875,3.75,14.1875,0.00701904296875,0.12786865234375,-0.942626953125,-0.308349609375,11.0,45.0,1.0,64.0,-240.0,948.0,442,4433,1397,480.85327079014644,4426.289874453061,1269.3983836995094,21.076575695418157,-131.08597056324246,17.23066491501744,
147,15.42900013923645,0.09500002861022949,10.526312619366108,9.527513038655966,102238.0,99.0,-230.0,961.0,7.0,-1.0625,-48.75,-3.1875,-3.625,-0.3125,216.25,4.1875,14.1875,0.0032958984375,0.12860107421875,-0.94244384765625,-0.30853271484375,27.0,9.0,13.0,71.0,-239.0,948.0,385,4430,1527,461.6826166321172,4427.031899562449,1320.9187069596076,3.9153643604131165,-120.39092013286421,57.66246894082872,
148,15.527000188827515,0.09800004959106445,10.204076469071287,9.531783229222455,102238.0,66.0,-235.0,952.0,5.75,-1.0625,-48.75,0.4375,-2.375,4.375,216.0,4.1875,14.0,0.00225830078125,0.1273193359375,-0.94317626953125,-0.30682373046875,-6.0,1.0,3.0,72.0,-236.0,948.0,398,4424,1439,448.9460933056938,4426.42551964996,1344.534965567686,-6.393381959254629,-111.59726040135276,71.77808120614992,
149,15.620000123977661,0.09299993515014648,10.752695670007947,9.539052421086465,102238.0,64.0,-225.0,931.0,7.25,-1.5,-46.75,1.6875,3.1875,0.5625,216.1875,4.1875,14.0,0.00262451171875,0.1273193359375,-0.94281005859375,-0.30810546875,-7.0,11.0,-17.0,72.0,-236.0,948.0,406,4453,1392,440.35687464455503,4431.740415719968,1354.027972454149,-13.012600129983156,-98.6037629336426,74.11097583462023,
150,15.70900011062622,0.08899998664855957,11.235956741755135,9.548666302353245,102238.0,86.0,-223.0,932.0,5.75,-1.0625,-47.1875,-0.125,1.5625,-1.875,216.3125,4.0625,13.875,0.00360107421875,0.12579345703125,-0.94244384765625,-0.3096923828125,18.0,11.0,-3.0,69.0,-234.0,949.0,366,4436,1607,425.48549971564404,4432.592332575975,1404.6223779633194,-24.87687757513272,-90.27422141524384,112.17712517439543,
151,15.801000118255615,0.09200000762939453,10.869564315997886,9.556357121062408,102246.25,81.0,-218.0,947.0,6.5625,-2.25,-47.6875,1.5625,2.75,1.4375,216.5,4.0,13.75,0.0037841796875,0.12493896484375,-0.94207763671875,-0.31121826171875,12.0,14.0,-2.0,69.0,-233.0,950.0,368,4436,1604,413.98839977251527,4433.27386606078,1444.4979023706555,-32.583929982353126,-82.75269251868217,136.9135639788026,
152,15.889000177383423,0.08800005912780762,11.363628728335758,9.566366561966465,102246.25,63.0,-224.0,958.0,6.5625,-0.75,-48.5,1.4375,2.125,2.125,216.5,3.9375,13.6875,0.00445556640625,0.124267578125,-0.9422607421875,-0.31085205078125,-3.0,7.0,7.0,67.0,-232.0,950.0,388,4419,1510,408.79071981801224,4430.419092848624,1457.5983218965246,-34.622934278091726,-78.8786600770072,137.83407893559587,
153,15.97700023651123,0.08800005912780762,11.363628728335758,9.576265740445992,102246.25,58.0,-240.0,959.0,6.5625,-1.0625,-46.75,-1.625,-0.75,-1.5,216.5625,3.8125,13.6875,0.0052490234375,0.1240234375,-0.942138671875,-0.31146240234375,-7.0,-8.0,8.0,66.0,-232.0,950.0,396,4425,1537,406.2325758544098,4429.335274278899,1473.4786575172197,-34.19534280285155,-73.75334386239027,141.1161391893258,
154,16.06600022315979,0.08899998664855957,11.235956741755135,9.585459844448573,102246.25,71.0,-226.0,971.0,7.6875,-1.5,-47.6875,-0.0625,-0.8125,-4.3125,217.0625,3.75,13.6875,0.00653076171875,0.1234130859375,-0.9407958984375,-0.3155517578125,7.0,5.0,20.0,64.0,-231.0,950.0,429,4382,1438,410.78606068352786,4419.86821942312,1466.382926013776,-27.62276899758789,-76.26493563500121,124.11119189051476,
155,16.16000008583069,0.09399986267089844,10.638313414361951,9.591584107472013,102248.75,77.0,-219.0,928.0,7.6875,-1.5,-48.375,-0.3125,-1.4375,-1.1875,217.5,3.8125,13.75,0.006591796875,0.1243896484375,-0.93951416015625,-0.319091796875,11.0,14.0,-32.0,65.0,-233.0,950.0,391,4382,1538,406.8288485468223,4412.294575538495,1480.7063408110207,-28.737366632492694,-76.59648698577784,126.28765724977413,
156,16.258000135421753,0.09800004959106445,10.204076469071287,9.59527609180655,102248.75,51.0,-224.0,944.0,6.5625,-0.75,-47.1875,-1.5625,-0.0625,-0.6875,217.5,3.875,13.8125,0.00634765625,0.12506103515625,-0.93939208984375,-0.31915283203125,-15.0,9.0,-5.0,66.0,-234.0,949.0,431,4398,1416,411.6630788374579,4409.435660430797,1467.7650726488166,-22.726267524075322,-72.94484679294344,106.39537351663212,
157,16.34500026702881,0.08700013160705566,11.494235485948398,9.605383752528958,102248.75,65.0,-230.0,954.0,7.0,-1.875,-48.375,-0.125,1.9375,-2.3125,217.5625,3.8125,13.875,0.0067138671875,0.12518310546875,-0.93914794921875,-0.31988525390625,0.0,4.0,4.0,66.0,-234.0,949.0,427,4374,1427,414.7304630699663,4402.348528344638,1459.6120581190535,-18.2615376992576,-73.60060330399821,90.98705424859132,
158,16.436000108718872,0.09099984169006348,10.989030106292951,9.61304447279634,102248.75,61.0,-231.0,960.0,7.25,-1.5,-48.0,-0.375,0.875,0.6875,217.6875,3.75,13.8125,0.0074462890625,0.124755859375,-0.93896484375,-0.320556640625,-3.0,2.0,10.0,64.0,-234.0,950.0,431,4392,1385,417.984370455973,4400.278822675711,1444.6896464952429,-14.102088256865148,-69.68464930842956,71.3543731158234,
159,16.5239999294281,0.08799982070922852,11.363659515900926,9.622367506600627,102248.75,59.0,-230.0,951.0,6.1875,-0.75,-48.0,-0.75,-1.0625,1.75,217.625,3.625,13.8125,0.00836181640625,0.12432861328125,-0.939208984375,-0.3199462890625,-3.0,4.0,1.0,62.0,-234.0,950.0,494,4406,1340,433.18749636477844,4401.423058140569,1423.7517171961942,0.28653481210128895,-63.31772324007333,47.539360922680615,
160,16.617000102996826,0.09300017356872559,10.752668104011834,9.628693446968475,102243.75,60.0,-240.0,950.0,7.6875,0.6875,-48.75,0.625,0.75,0.5625,217.5,3.6875,14.0,0.00836181640625,0.1258544921875,-0.9393310546875,-0.31903076171875,-3.0,-3.0,0.0,63.0,-237.0,949.0,415,4416,1435,429.5499970918228,4404.338446512455,1426.0013737569554,-2.74721569405261,-56.028446876684086,45.74144552826681,
161,16.70900011062622,0.09200000762939453,10.869564315997886,9.635525700763553,102243.75,72.0,-231.0,935.0,6.5625,0.375,-47.6875,0.875,0.875,-0.875,217.6875,3.6875,14.0,0.00830078125,0.12615966796875,-0.938720703125,-0.32061767578125,8.0,6.0,-14.0,64.0,-237.0,949.0,407,4366,1525,425.0399976734583,4396.670757209965,1445.8010990055643,-6.310353198823549,-58.131778503374676,58.790862023811044,
162,16.801000118255615,0.09200000762939453,10.869564315997886,9.642283129560495,102243.75,78.0,-228.0,918.0,7.6875,-0.75,-48.375,0.375,-0.4375,1.6875,217.875,3.6875,14.0,0.00848388671875,0.1259765625,-0.93829345703125,-0.32196044921875,11.0,8.0,-27.0,63.0,-237.0,949.0,426,4433,1410,425.23199813876664,4403.936605767973,1438.6408792044515,-5.663759974223594,-47.57443272632427,48.271173485322045,
163,16.90500020980835,0.10400009155273438,9.615376150827128,9.642117596983331,102243.75,47.0,-234.0,957.0,6.5625,0.6875,-48.0,-0.4375,-1.4375,1.0625,217.625,3.6875,13.875,0.00811767578125,0.12493896484375,-0.9390869140625,-0.32012939453125,-11.0,1.0,12.0,63.0,-235.0,949.0,502,4403,1245,440.58559851101336,4403.749284614379,1399.9127033635611,6.139909043136256,-44.04989098456391,15.880572794345952,
164,17.00100016593933,0.09599995613098145,10.416671426762,9.646491288704645,102251.25,63.0,-227.0,945.0,7.25,0.0,-46.75,-0.25,-1.5,-1.3125,217.5625,3.6875,13.875,0.0081787109375,0.1251220703125,-0.93914794921875,-0.31988525390625,-2.0,6.0,-15.0,63.0,-235.0,949.0,400,4412,1439,432.4684788088107,4405.399427691504,1407.7301626908488,-0.8434733561399277,-39.3344965141526,20.928025389922553,
165,17.088000059127808,0.08699989318847656,11.494266985289281,9.655898842993205,102251.25,75.0,-221.0,941.0,7.0,-1.5,-48.375,1.625,1.1875,-0.25,217.625,3.75,13.875,0.00775146484375,0.12518310546875,-0.93896484375,-0.32037353515625,10.0,14.0,-7.0,64.0,-235.0,949.0,453,4405,1376,436.5747830470486,4405.319542153204,1401.384130152679,2.855793799541958,-36.376443661885105,13.699957028487184,
166,17.177000284194946,0.08900022506713867,11.23592664227124,9.664085536095694,102251.25,65.0,-232.0,953.0,7.6875,-1.0625,-48.0,0.0,-1.0625,2.0,217.5,3.8125,13.875,0.00677490234375,0.12554931640625,-0.93927001953125,-0.3193359375,-1.0,3.0,4.0,66.0,-235.0,949.0,510,4405,1239,451.2598264376389,4405.255633722563,1368.9073041221432,15.340903088170911,-33.630748923684294,-15.452796746380127,
167,17.263999938964844,0.08699965476989746,11.49429848480281,9.673308653290773,102251.25,68.0,-242.0,953.0,8.5,-0.75,-46.375,-0.25,-0.625,-0.625,217.5,3.8125,13.875,0.00677490234375,0.12530517578125,-0.93939208984375,-0.319091796875,-1.0,6.0,7.0,65.0,-235.0,949.0,416,4415,1410,444.2078611501111,4407.204506978051,1377.1258432977145,7.918234218594696,-29.3163095766738,-6.989023032643084,
168,17.354000091552734,0.09000015258789062,11.111092273131861,9.680765190371066,102247.0,63.0,-223.0,943.0,8.0625,-0.375,-47.5625,0.0625,0.1875,0.0625,217.5625,3.8125,13.875,0.00677490234375,0.125244140625,-0.939208984375,-0.31964111328125,-5.0,8.0,-15.0,66.0,-234.0,949.0,428,4414,1402,440.9662889200889,4408.563605582441,1382.1006746381718,4.535189755612421,-25.896171349141895,-2.1946308839637023,
169,17.444000005722046,0.08999991416931152,11.11112170750251,9.688144917711762,102247.0,58.0,-222.0,961.0,7.6875,-2.25,-46.75,1.6875,0.75,-1.1875,217.625,3.8125,13.875,0.0068359375,0.1251220703125,-0.93902587890625,-0.32025146484375,-7.0,12.0,11.0,66.0,-234.0,949.0,443,4394,1403,441.3730311360712,4405.650884465953,1386.2805397105376,4.533971038862846,-26.394163264806703,1.5504658886811566,
170,17.542999982833862,0.0989999771118164,10.101012436301284,9.690474842749133,102247.0,72.0,-234.0,961.0,7.0,-1.875,-48.0,1.5,0.9375,-1.9375,217.875,3.6875,13.625,0.00775146484375,0.1226806640625,-0.9385986328125,-0.3223876953125,9.0,-3.0,10.0,63.0,-230.0,951.0,441,4379,1350,441.29842490885693,4400.320707572762,1379.02443176843,4.126828189843827,-28.50750679102348,-4.21256080004998,
171,17.646000146865845,0.10300016403198242,9.708722402514733,9.69058135423238,102247.0,80.0,-226.0,999.0,8.5,-1.0625,-47.6875,-4.375,-1.625,0.0,217.9375,3.8125,13.6875,0.00714111328125,0.12371826171875,-0.93829345703125,-0.32281494140625,15.0,5.0,48.0,65.0,-232.0,950.0,340,4399,1559,421.03873992708554,4400.05656605821,1415.019545414744,-11.336503204456115,-26.509893469377076,23.020731981959326,
172,17.746999979019165,0.10099983215332031,9.901006552980945,9.691778903664936,102241.75,30.0,-262.0,953.0,7.25,-0.75,-47.1875,-6.5625,1.5625,-1.0625,217.9375,3.4375,14.125,0.01116943359375,0.12628173828125,-0.93804931640625,-0.32244873046875,-28.0,-22.0,4.0,59.0,-239.0,949.0,453,4419,1415,427.4309919416685,4403.845252846568,1415.0156363317953,-5.590283318191765,-21.580222092893177,21.24515542244486,
173,17.848000049591064,0.10100007057189941,9.900983180879315,9.692962770019927,102241.75,36.0,-276.0,892.0,7.6875,1.75,-48.0,-6.4375,15.3125,-15.625,219.0625,2.75,14.8125,0.0198974609375,0.1297607421875,-0.93414306640625,-0.331787109375,-11.0,-25.0,-54.0,47.0,-250.0,946.0,445,4452,1378,430.9447935533348,4413.476202277254,1407.6125090654364,-2.480994522020761,-12.576143130397998,13.96531408655665,
174,17.95300030708313,0.10500025749206543,9.523786168577416,9.691973320545786,102241.75,41.0,-272.0,962.0,8.5,1.375,-46.0,4.0625,13.3125,-30.6875,221.5,1.8125,14.6875,0.02996826171875,0.1253662109375,-0.92718505859375,-0.35174560546875,9.0,-23.0,14.0,32.0,-248.0,948.0,432,4425,1337,431.1558348426679,4415.780961821803,1393.4900072523492,-2.1351947111742784,-9.91762725479193,2.5335089695362196,
175,18.13100004196167,0.07799983024597168,12.820540722287602,9.651977254149628,102253.25,41.0,-207.0,968.0,10.25,1.0625,-46.75,-2.625,3.5,-23.1875,227.25,2.375,14.125,0.0302734375,0.1212158203125,-0.90887451171875,-0.39788818359375,0.0,32.0,18.0,40.0,-239.0,950.0,405,4377,1580,425.92466787413434,4408.024769457443,1430.7920058018794,-7.134896682591968,-16.810740620575988,39.162276718758285,
176,18.2260000705719,0.09500002861022949,10.526312619366108,9.656534583480742,102253.25,19.0,-225.0,922.0,11.0,1.75,-46.0,-0.5625,4.375,-15.5,228.875,2.4375,14.1875,0.03131103515625,0.12152099609375,-0.9031982421875,-0.4105224609375,-22.0,15.0,-27.0,42.0,-240.0,949.0,394,4345,1801,419.5397342993075,4395.419815565954,1504.8336046415036,-11.760664766445979,-25.732957354308432,96.15942766062946,
177,18.325000286102295,0.09900021553039551,10.100988110404419,9.658935729143591,102253.25,25.0,-247.0,956.0,11.0,2.1875,-47.25,1.375,7.25,-17.5,230.5,2.25,14.125,0.0345458984375,0.1201171875,-0.8973388671875,-0.42333984375,-13.0,-7.0,6.0,38.0,-240.0,950.0,315,4376,1488,398.63178743944604,4391.535852452764,1501.466883713203,-27.11679462305059,-26.772373260550832,86.13659670953936,
178,18.42200016975403,0.0969998836517334,10.309290716166029,9.662360132438142,102253.25,42.0,-248.0,962.0,11.375,2.5625,-46.5625,-0.5625,4.6875,-20.125,232.375,2.125,14.1875,0.03759765625,0.11920166015625,-0.8902587890625,-0.43804931640625,5.0,0.0,21.0,36.0,-240.0,950.0,353,4415,1378,389.5054299515569,4396.228681962211,1476.7735069705627,-32.273444421293405,-20.985660255027447,59.90209639342054,
179,18.519999980926514,0.09799981117248535,10.204101294031496,9.665226791811532,102250.0,49.0,-226.0,935.0,11.375,4.0625,-46.875,0.4375,4.0625,-17.875,234.125,2.0625,14.25,0.0404052734375,0.11895751953125,-0.88323974609375,-0.4517822265625,11.0,15.0,-7.0,35.0,-241.0,949.0,512,4751,848,414.0043439612456,4467.182945569769,1351.0188055764502,-10.53920538940925,36.38012155291926,-43.51782079329086,
180,18.618000030517578,0.09800004959106445,10.204076469071287,9.668063148831997,102250.0,53.0,-232.0,927.0,12.0625,2.875,-46.5625,-0.6875,3.3125,-9.75,235.5625,2.0625,14.3125,0.0418701171875,0.1187744140625,-0.87762451171875,-0.4625244140625,7.0,9.0,-6.0,35.0,-242.0,949.0,362,4459,1364,403.6034751689965,4465.546356455815,1353.61504446116,-17.89979363299301,32.29296139736732,-38.12704764361762,
181,18.705000162124634,0.08700013160705566,11.494235485948398,9.676556986430993,102250.0,22.0,-237.0,940.0,12.5,2.5625,-47.75,-2.125,4.75,-8.3125,236.25,1.9375,14.4375,0.0443115234375,0.11895751953125,-0.874267578125,-0.46856689453125,-11.0,4.0,-18.0,33.0,-244.0,949.0,365,4418,1348,395.8827801351972,4456.037085164652,1352.4920355689283,-23.354758009446027,21.39016449869971,-36.185190881888836,
182,18.796000003814697,0.09099984169006348,10.989030106292951,9.682911255749236,102250.0,27.0,-235.0,971.0,12.5,2.1875,-46.0625,0.0625,3.1875,-7.6875,237.0625,1.875,14.5,0.045654296875,0.1187744140625,-0.87139892578125,-0.47381591796875,-4.0,9.0,22.0,32.0,-245.0,948.0,371,4419,1322,390.9062241081578,4448.629668131722,1346.3936284551428,-25.76738099124149,13.47529651587488,-38.559130795767516,
183,18.88700008392334,0.09100008010864258,10.989001315231004,9.689204171485658,102244.25,47.0,-243.0,942.0,12.0625,1.75,-46.5625,0.75,2.625,-6.0625,237.6875,1.75,14.5,0.04730224609375,0.1182861328125,-0.86859130859375,-0.4788818359375,17.0,2.0,-6.0,30.0,-245.0,948.0,409,4424,1357,394.5249792865263,4443.703734505378,1348.5149027641144,-20.721271737992453,8.269604669557651,-33.79515488930683,
184,18.97700023651123,0.09000015258789062,11.111092273131861,9.695947605353822,102244.25,42.0,-247.0,972.0,13.25,3.25,-46.75,-1.5625,0.3125,-2.125,238.0625,1.6875,14.4375,0.04779052734375,0.1175537109375,-0.86700439453125,-0.48187255859375,9.0,0.0,25.0,29.0,-245.0,949.0,364,4404,1414,388.4199834292211,4435.762987604302,1361.6119222112916,-24.348888081082684,0.8391065017729646,-19.98771921112489,
185,19.063000202178955,0.08599996566772461,11.627911618751906,9.70466338131046,102244.25,30.0,-233.0,948.0,13.5625,4.0625,-46.875,-1.875,-1.3125,-0.125,238.1875,1.6875,14.5,0.048095703125,0.11773681640625,-0.86663818359375,-0.482421875,0.0,12.0,0.0,29.0,-245.0,948.0,367,4399,1374,384.13598674337686,4428.410390083442,1364.0895377690333,-26.309696681367058,-5.808646967706625,-16.23033373760703,
186,19.15400004386902,0.09099984169006348,10.989030106292951,9.710765353137635,102244.25,32.0,-220.0,938.0,13.5625,3.6875,-46.0625,1.125,-0.0625,2.0,238.125,1.6875,14.375,0.04791259765625,0.11663818359375,-0.86688232421875,-0.48236083984375,3.0,23.0,-10.0,28.0,-243.0,949.0,352,4409,1444,377.7087893947015,4424.528312066754,1380.0716302152266,-29.72225725450513,-8.646222110621087,-1.4572655207475957,
187,19.24500012397766,0.09100008010864258,10.989001315231004,9.716809498328537,102250.0,37.0,-236.0,923.0,14.0,3.6875,-46.875,2.9375,3.1875,4.125,237.875,1.5625,14.1875,0.04766845703125,0.11505126953125,-0.86810302734375,-0.48052978515625,10.0,4.0,-27.0,27.0,-240.0,950.0,329,4427,1381,367.9670315157612,4425.022649653403,1380.2573041721814,-35.67666208702217,-7.56217772608397,-1.1879474811471238,
188,19.33400011062622,0.08899998664855957,11.235956741755135,9.723802571857478,102250.0,21.0,-259.0,958.0,14.0,2.5625,-45.75,1.8125,1.625,5.25,237.5,1.5,14.0,0.04705810546875,0.11322021484375,-0.86993408203125,-0.4776611328125,-3.0,-22.0,6.0,25.0,-237.0,951.0,345,4386,1449,363.373625212609,4417.218119722723,1394.005843337745,-36.903630324324794,-13.732124814371648,10.79832980704938,
189,19.426000118255615,0.09200000762939453,10.869564315997886,9.729228809300116,102250.0,12.0,-256.0,958.0,13.5625,3.6875,-46.5625,-0.8125,1.0,3.625,237.0625,1.25,14.0625,0.0487060546875,0.11309814453125,-0.87176513671875,-0.47412109375,-9.0,-17.0,7.0,21.0,-238.0,950.0,359,4388,1457,362.4989001700872,4411.374495778178,1406.6046746701961,-34.79415755770664,-17.565609969052424,20.51153158744198,
190,19.526000261306763,0.10000014305114746,9.999985694905718,9.730615459250455,102250.0,35.0,-234.0,964.0,13.5625,2.875,-45.75,-1.9375,-1.75,1.125,236.8125,1.1875,14.3125,0.0499267578125,0.114990234375,-0.87255859375,-0.47216796875,14.0,8.0,14.0,21.0,-243.0,949.0,494,4605,1119,388.7991201360698,4450.099596622543,1349.083739736157,-11.863867021445358,13.605226993326465,-25.358912885136576,
191,19.62500023841858,0.0989999771118164,10.101012436301284,9.732483958195925,102248.25,31.0,-233.0,887.0,13.5625,5.1875,-47.25,1.0,-0.5,8.75,236.3125,1.3125,14.5,0.04931640625,0.1168212890625,-0.8743896484375,-0.4683837890625,8.0,12.0,-61.0,22.0,-245.0,949.0,634,4786,809,437.8392961088559,4517.279677298035,1241.0669917889256,27.19201864742863,64.80881045370504,-107.41932219745405,
192,19.7260000705719,0.10099983215332031,9.901006552980945,9.733346817048526,102248.25,30.0,-236.0,1041.0,13.5625,4.375,-45.25,3.0625,-5.5,9.875,235.375,1.5625,14.25,0.04510498046875,0.11651611328125,-0.87847900390625,-0.46112060546875,2.0,5.0,91.0,27.0,-241.0,950.0,651,4730,834,480.4714368870848,4559.823741838428,1159.6535934311405,57.60001831296613,92.25316980774537,-161.21577786759775,
193,19.830000162124634,0.10400009155273438,9.615376150827128,9.732728110039588,102248.25,35.0,-210.0,915.0,12.5,4.375,-46.875,2.625,-11.6875,13.5625,234.0625,2.1875,14.25,0.03936767578125,0.11944580078125,-0.883544921875,-0.451171875,-1.0,31.0,-34.0,37.0,-241.0,949.0,686,4710,876,521.5771495096678,4589.8589934707425,1102.9228747449124,83.59882734154101,107.38729438421659,-190.80467733135546,
194,19.92799997329712,0.09799981117248535,10.204101294031496,9.735046179242964,102248.25,55.0,-208.0,937.0,12.0625,4.375,-46.875,2.6875,-13.25,16.75,232.5625,3.25,14.125,0.02880859375,0.12286376953125,-0.889404296875,-0.4393310546875,0.0,31.0,-11.0,55.0,-239.0,949.0,817,4777,710,580.6617196077343,4627.287194776594,1024.33829979593,123.58539787725542,128.5264018347621,-237.85785932228376,
195,20.03000020980835,0.10200023651123047,9.803898835959048,9.735396802667621,102249.5,60.0,-241.0,904.0,11.25,2.875,-47.75,-1.0625,-3.625,25.3125,230.25,3.3125,14.125,0.02557373046875,0.12396240234375,-0.89794921875,-0.4215087890625,2.0,-1.0,-44.0,57.0,-239.0,949.0,392,4388,1615,542.9293756861874,4579.429755821276,1142.4706398367439,85.58516787662134,82.50227815840111,-130.36467580629335,
196,20.130000114440918,0.09999990463256836,10.000009536752259,9.73671132070153,102249.5,34.0,-257.0,934.0,10.1875,2.875,-46.875,-4.1875,1.75,24.3125,227.75,3.0,14.4375,0.0267333984375,0.12591552734375,-0.9066162109375,-0.40185546875,-16.0,-12.0,-18.0,51.0,-244.0,948.0,437,4356,1660,521.74350054895,4534.7438046570205,1245.9765118693952,62.681970537026615,41.74138752949666,-40.62699829660815,
197,20.2260000705719,0.09599995613098145,10.416671426762,9.739938658787404,102249.5,38.0,-293.0,917.0,10.875,2.875,-47.25,-4.375,10.0,13.625,226.0,2.25,14.9375,0.03228759765625,0.12762451171875,-0.9124755859375,-0.387451171875,5.0,-41.0,-53.0,39.0,-252.0,946.0,621,4608,1240,541.59480043916,4549.395043725617,1244.7812094955161,73.77786286865903,50.27882072940866,-38.45745197826246,
198,20.324000120162964,0.09800004959106445,10.204076469071287,9.74217667926349,102257.25,20.0,-320.0,1034.0,10.875,1.375,-47.75,1.5625,0.375,-3.0625,225.4375,1.5,14.75,0.03704833984375,0.12371826171875,-0.91448974609375,-0.38348388671875,0.0,-67.0,99.0,26.0,-249.0,947.0,424,4443,1568,518.075840351328,4528.116034980494,1309.424967596413,49.617793852658195,29.68813883680622,15.295270344110435,
199,20.41700029373169,0.09300017356872559,10.752668104011834,9.746779504190723,102257.25,73.0,-259.0,967.0,11.0,1.75,-46.5,-3.1875,-5.4375,-10.5625,226.4375,1.8125,14.875,0.03619384765625,0.1256103515625,-0.91094970703125,-0.39117431640625,43.0,-5.0,34.0,31.0,-252.0,947.0,450,4408,1566,504.46067228106244,4504.092827984396,1360.7399740771305,34.52447120113085,7.512007131399468,56.60407350267659,
200,20.51200008392334,0.09499979019165039,10.526339036987586,9.75038997570762,102257.25,56.0,-239.0,773.0,10.0,1.75,-47.6875,-9.25,9.875,4.1875,226.8125,2.0,15.75,0.0382080078125,0.133056640625,-0.9088134765625,-0.3935546875,2.0,22.0,-166.0,34.0,-266.0,943.0,410,4436,1689,485.56853782484995,4490.474262387516,1426.3919792617044,16.5534809624233,-4.104647595324214,105.45835525034917,
201,20.60800004005432,0.09599995613098145,10.416671426762,9.753493769862695,102257.25,-33.0,-283.0,945.0,11.0,2.5625,-47.6875,-0.125,20.5625,2.875,226.5,0.875,15.875,0.0472412109375,0.13043212890625,-0.90985107421875,-0.3909912109375,-49.0,-21.0,-6.0,15.0,-269.0,942.0,380,4466,1845,464.45483025988,4485.579409910013,1510.1135834093636,-1.6560977531706964,-7.714671115912255,164.48979590909758,
202,20.69700026512146,0.08900022506713867,11.23592664227124,9.759868454966876,102243.75,-38.0,-307.0,1015.0,13.25,1.375,-46.875,14.25,16.1875,-23.1875,227.4375,-0.6875,15.25,0.05914306640625,0.119384765625,-0.9072265625,-0.3990478515625,-26.0,-48.0,69.0,-11.0,-258.0,945.0,435,4514,1159,458.56386420790403,4491.26352792801,1439.890866727491,-6.62524383190919,-2.202933793117393,91.06975004319112,
203,20.79100012779236,0.09399986267089844,10.638313414361951,9.763840063116534,102243.75,115.0,-224.0,941.0,13.5625,1.75,-46.5,6.0625,-4.0,-37.3125,230.8125,-0.25,14.5,0.0565185546875,0.1134033203125,-0.89593505859375,-0.42578125,114.0,20.0,-5.0,-4.0,-246.0,949.0,277,4395,1340,422.2510913663233,4472.010822342409,1419.9126933819928,-35.86071275621372,-17.804164230290567,67.6922559386841,
204,20.882000207901,0.09100008010864258,10.989001315231004,9.769179100133028,102243.75,30.0,-245.0,980.0,13.5625,1.0625,-46.875,1.9375,-5.4375,-6.0625,232.75,0.875,14.125,0.0478515625,0.11407470703125,-0.8887939453125,-0.4412841796875,14.0,-5.0,29.0,15.0,-240.0,950.0,273,4401,1291,392.4008730930587,4457.808657873927,1394.1301547055944,-58.357292639577736,-28.45044909435034,40.66397717168532,
205,20.97100019454956,0.08899998664855957,11.235956741755135,9.775404038825018,102243.75,-13.0,-241.0,953.0,12.875,1.0625,-46.5625,-3.4375,-6.3125,2.4375,232.8125,1.375,14.3125,0.04461669921875,0.1173095703125,-0.888427734375,-0.44158935546875,-37.0,1.0,-253.0,22.0,-242.0,949.0,282,4437,1301,370.320698474447,4453.646926299141,1375.5041237644755,-72.96685639494454,-29.86036428185687,21.41819252924022,
206,21.062000036239624,0.09099984169006348,10.989030106292951,9.780647594984,102243.75,-16.0,-232.0,903.0,11.75,2.875,-46.0625,-3.875,-1.25,-0.4375,232.75,1.5625,14.8125,0.044677734375,0.121337890625,-0.88824462890625,-0.44073486328125,-51.0,19.0,-49.0,27.0,-250.0,947.0,341,4426,1285,364.4565587795576,4448.117541039313,1357.4032990115804,-72.31038144194164,-32.23983497604857,4.452882576299903,
207,21.16600012779236,0.10400009155273438,9.615376150827128,9.779835526325794,102255.75,-7.0,-226.0,940.0,12.5,2.875,-46.0625,4.5625,6.5625,1.6875,233.1875,1.125,14.75,0.04852294921875,0.11944580078125,-0.88671875,-0.4439697265625,-26.0,23.0,-7.0,19.0,-249.0,948.0,393,4361,1934,370.16524702364615,4430.694032831451,1472.7226392092643,-62.515860841719004,-42.65745374988545,89.49060079480142,
208,21.273000240325928,0.10700011253356934,9.345784563415933,9.777652312799164,102255.75,42.0,-247.0,960.0,12.875,4.375,-47.25,2.875,1.125,-0.875,233.875,0.5,14.375,0.0523681640625,0.11376953125,-0.8843994140625,-0.4495849609375,18.0,0.0,3.0,9.0,-243.0,949.0,315,4475,1938,359.1321976189169,4439.555226265162,1565.7781113674114,-65.64180227359418,-32.996089841065796,149.5649069668501,
209,21.37000012397766,0.0969998836517334,10.309290716166029,9.780065455661692,102255.75,58.0,-247.0,991.0,14.0,3.6875,-46.0625,1.1875,-2.0,8.8125,234.1875,0.6875,14.0,0.04998779296875,0.11163330078125,-0.88336181640625,-0.45245361328125,46.0,-9.0,35.0,12.0,-237.0,951.0,322,4360,1907,351.70575809513355,4423.64418101213,1634.0224890939294,-66.48260544935397,-43.08582343889555,192.22184611934466,
210,21.47700023651123,0.10700011253356934,9.345784563415933,9.77790183393474,102254.25,10.0,-259.0,969.0,12.5,2.5625,-46.0625,-1.0,-4.1875,12.0625,233.375,0.75,14.0625,0.0491943359375,0.11279296875,-0.886474609375,-0.44610595703125,-3.0,-20.0,18.0,13.0,-239.0,950.0,423,4445,1265,365.9646064761069,4427.915344809704,1560.2179912751435,-51.10241519774756,-36.694577029186796,124.30917186339366,
211,21.58500027656555,0.10800004005432129,9.259255825248077,9.77530680085647,102254.25,-4.0,-247.0,938.0,12.0625,2.5625,-47.6875,-2.6875,-3.3125,7.75,232.6875,1.0,14.4375,0.0479736328125,0.11676025390625,-0.88885498046875,-0.44049072265625,-21.0,-6.0,-13.0,17.0,-244.0,949.0,352,4410,1985,363.17168518088556,4424.332275847763,1645.1743930201148,-49.15877793098329,-36.42368911411422,175.30811107660395,
212,21.686000108718872,0.10099983215332031,9.901006552980945,9.775892231724432,102254.25,1.0,-252.0,938.0,12.5,2.875,-45.75,-2.875,-5.125,3.125,232.3125,1.0625,14.75,0.04827880859375,0.1195068359375,-0.8900146484375,-0.43731689453125,-16.0,-2.0,-9.0,18.0,-249.0,948.0,368,4405,1853,364.1373481447085,4420.4658206782115,1686.7395144160919,-44.63735230967339,-36.566763496059075,193.49770005111577,
213,21.77500009536743,0.08899998664855957,11.235956741755135,9.781859888272292,102254.25,18.0,-241.0,961.0,12.875,2.75,-46.875,2.25,-7.125,2.1875,232.1875,1.25,14.875,0.0469970703125,0.12158203125,-0.89019775390625,-0.43658447265625,1.0,12.0,43.0,22.0,-252.0,947.0,354,4422,1923,362.1098785157668,4420.772656542569,1733.9916115328738,-42.954379382371386,-33.48565793045937,219.47941112260565,
214,21.867000102996826,0.09200000762939453,10.869564315997886,9.786436136279697,102250.0,54.0,-216.0,895.0,12.5,3.6875,-46.0625,-2.125,-4.625,11.0,232.0625,1.625,15.25,0.04522705078125,0.12579345703125,-0.89044189453125,-0.43499755859375,28.0,35.0,-58.0,28.0,-258.0,945.0,377,4409,1848,365.0879028126135,4418.418125234056,1756.7932892262993,-37.15441551948198,-32.877902440691514,221.66350773566845,
215,21.96500015258789,0.09800004959106445,10.204076469071287,9.788299499495745,102250.0,13.0,-269.0,860.0,11.375,1.75,-46.5,1.8125,2.375,16.875,230.625,1.5625,15.5,0.044921875,0.12799072265625,-0.8955078125,-0.423828125,-14.0,-7.0,-84.0,27.0,-262.0,944.0,421,4444,1879,376.27032225009077,4423.534500187245,1781.2346313810394,-25.507343269689834,-26.326297095216226,223.7993196152572,
216,22.055000066757202,0.08999991416931152,11.11112170750251,9.793697544602137,102250.0,-4.0,-282.0,1032.0,11.0,2.1875,-48.0625,1.3125,-2.4375,6.875,229.5625,1.6875,15.0625,0.04144287109375,0.125732421875,-0.8997802734375,-0.41571044921875,-29.0,-19.0,60.0,29.0,-255.0,946.0,397,4511,1153,380.4162578000727,4441.027600149796,1655.5877051048315,-19.996196262400815,-9.332839089027667,99.06874367268469,
217,22.151000022888184,0.09599995613098145,10.416671426762,9.796397443717135,102250.0,29.0,-223.0,966.0,11.375,2.5,-46.5,-2.75,-12.125,7.625,229.3125,2.3125,15.0,0.0360107421875,0.12725830078125,-0.90081787109375,-0.41363525390625,-10.0,30.0,20.0,39.0,-254.0,946.0,363,4494,1228,376.9330062400582,4451.622080119837,1570.0701640838652,-21.250348448997833,-0.11655078670225372,22.848224704804366,
218,22.23900008201599,0.08800005912780762,11.363628728335758,9.802599001575166,102250.5,34.0,-203.0,975.0,9.5625,2.75,-46.875,2.8125,-17.875,16.0,228.0625,3.25,14.8125,0.02618408203125,0.12939453125,-0.9051513671875,-0.404052734375,-21.0,46.0,28.0,56.0,-250.0,946.0,603,4429,1198,422.1464049920466,4447.09766409587,1495.6561312670924,19.947625707787246,-4.066437737111202,-44.02332356278147,
219,22.32800006866455,0.08899998664855957,11.235956741755135,9.808312402656604,102250.5,56.0,-186.0,906.0,9.5625,1.6875,-46.5,2.125,-9.125,30.125,226.0,3.8125,14.8125,0.01885986328125,0.1319580078125,-0.9132080078125,-0.385009765625,-13.0,61.0,-37.0,65.0,-250.0,945.0,690,4203,719,475.7171239936373,4398.2781312766965,1340.324905013674,64.75936619043529,-45.9904522673409,-175.02123793814087,
220,22.420000076293945,0.09200000762939453,10.869564315997886,9.812667227981843,102250.5,83.0,-222.0,942.0,7.6875,2.0625,-47.25,9.375,-4.1875,38.6875,222.875,3.5625,14.3125,0.015625,0.1268310546875,-0.9244384765625,-0.35931396484375,23.0,17.0,9.0,61.0,-241.0,948.0,646,4433,1063,509.7736991949099,4405.222505021357,1284.8599240109393,88.27676535280132,-36.637049029757925,-207.96637634560562,
221,22.511000156402588,0.09100008010864258,10.989001315231004,9.817422525189006,102250.5,80.0,-251.0,941.0,7.25,0.25,-48.0625,3.375,-2.625,42.0625,219.125,3.0,14.0625,0.015869140625,0.12420654296875,-0.9346923828125,-0.33270263671875,28.0,-13.0,-8.0,51.0,-238.0,949.0,687,4373,791,545.218959355928,4398.7780040170865,1186.0879392087515,111.47157123130181,-39.26903076538601,-275.52918662623375,
222,22.59999990463257,0.08899974822998047,11.235986841400297,9.823008891008634,102243.25,49.0,-283.0,976.0,6.5625,-0.0625,-48.5,5.6875,-10.3125,40.9375,215.375,3.125,13.625,0.0098876953125,0.12164306640625,-0.945556640625,-0.30169677734375,6.0,-47.0,28.0,53.0,-231.0,951.0,373,4477,1586,510.7751674847424,4414.42240321367,1266.0703513670014,73.08849084458356,-22.710235105840574,-185.11497680339036,
223,22.69000005722046,0.09000015258789062,11.111092273131861,9.828118088921576,102243.25,25.0,-253.0,1003.0,5.5,-2.375,-48.5,-0.25,-11.8125,26.9375,211.5625,3.4375,13.5,0.00262451171875,0.1212158203125,-0.95513916015625,-0.270263671875,-34.0,-25.0,51.0,59.0,-228.0,951.0,801,4276,508,568.820133987794,4386.7379225709365,1114.456281093601,117.12128641763218,-44.64711806223694,-300.5751637924187,
224,22.778000116348267,0.08800005912780762,11.363628728335758,9.834050349276726,102243.25,70.0,-237.0,883.0,4.6875,-2.0,-48.875,2.5625,-10.5,17.3125,209.875,3.875,13.4375,-0.0029296875,0.12200927734375,-0.958984375,-0.255859375,4.0,-9.0,-68.0,66.0,-227.0,951.0,502,4382,1171,555.4561071902352,4385.7903380567495,1125.765024874881,96.40943177256449,-42.038425864256126,-267.5357320203983,
225,22.865000247955322,0.08700013160705566,11.494235485948398,9.840367267003217,102243.25,49.0,-257.0,950.0,4.0,-3.1875,-47.6875,4.0,-6.3125,15.8125,208.125,4.25,13.3125,-0.00823974609375,0.1214599609375,-0.96270751953125,-0.24151611328125,-23.0,-32.0,0.0,73.0,-225.0,951.0,608,4401,1299,565.9648857521883,4388.832270445399,1160.4120198999049,98.28676443655665,-36.109186157732786,-216.27094523807338,
226,22.957000255584717,0.09200000762939453,10.869564315997886,9.844491766515588,102243.25,34.0,-258.0,964.0,3.5625,-3.875,-46.875,2.1875,0.8125,-0.1875,207.25,3.9375,13.1875,-0.00665283203125,0.11993408203125,-0.9647216796875,-0.23419189453125,-32.0,-34.0,12.0,67.0,-223.0,952.0,617,4441,1205,576.1719086017506,4399.26581635632,1169.329615919924,99.2615172079815,-24.596355252741866,-192.15444292649804,
227,23.046000242233276,0.08899998664855957,11.235956741755135,9.849865382887913,102239.25,97.0,-244.0,947.0,3.6875,-3.875,-47.25,1.9375,4.5625,-9.625,207.75,3.8125,13.0,-0.00531005859375,0.11810302734375,-0.9638671875,-0.23858642578125,31.0,-23.0,-5.0,65.0,-220.0,953.0,613,4422,1242,583.5375268814005,4403.812653085057,1183.8636927359394,97.99088254718181,-18.768655216995747,-164.7841229254284,
228,23.13700032234192,0.09100008010864258,10.989001315231004,9.85434571567322,102239.25,54.0,-223.0,965.0,4.375,-3.5,-48.0625,-1.8125,4.75,-12.125,208.6875,3.75,13.0625,-0.00390625,0.1182861328125,-0.9619140625,-0.246337890625,-10.0,-2.0,12.0,64.0,-221.0,953.0,623,4428,981,591.4300215051204,4408.650122468046,1143.2909541887516,97.12384339368823,-13.23022904455862,-186.4264940090033,
229,23.223999977111816,0.08699965476989746,11.49429848480281,9.860489158873953,102239.25,44.0,-203.0,942.0,4.375,-3.5,-48.0625,-2.625,6.8125,-15.625,210.0,3.5,13.125,-0.00042724609375,0.11846923828125,-0.9591064453125,-0.257080078125,-16.0,19.0,-10.0,60.0,-222.0,953.0,414,4499,1492,555.9440172040963,4426.720097974437,1213.0327633510014,58.23802959126377,3.7815288823041726,-110.3458997739688,
230,23.312000036239624,0.08800005912780762,11.363628728335758,9.866163334010551,102239.25,70.0,-220.0,941.0,4.75,-3.875,-48.0625,0.0625,9.1875,-13.875,211.3125,3.0625,13.0,0.00433349609375,0.11669921875,-0.9561767578125,-0.2684326171875,17.0,0.0,-12.0,53.0,-221.0,953.0,406,4533,1555,525.9552137632771,4447.97607837955,1281.4262106808012,27.513515932981402,22.089321516064377,-42.00503928754721,
231,23.401000261306763,0.08900022506713867,11.23592664227124,9.87137290801861,102248.75,46.0,-195.0,986.0,6.25,-3.875,-47.25,-2.5625,10.875,-9.125,212.5,2.375,13.3125,0.01251220703125,0.1175537109375,-0.95318603515625,-0.27825927734375,3.0,28.0,29.0,40.0,-226.0,953.0,564,4466,1051,533.5641710106217,4451.58086270364,1235.340968544641,31.97798898620319,23.507181860782442,-78.64205205726267,
232,23.506999969482422,0.10599970817565918,9.433988236484891,9.86940061688817,102248.75,53.0,-205.0,874.0,7.75,-2.6875,-48.0625,7.8125,10.1875,-13.875,213.8125,1.6875,13.25,0.01934814453125,0.11480712890625,-0.9501953125,-0.2890625,24.0,19.0,-111.0,29.0,-224.0,954.0,382,4506,1561,503.2513368084974,4462.464690162912,1300.472774835713,7.495922895908979,29.603327174342162,-25.273756582287668,
233,23.61400008201599,0.10700011253356934,9.345784563415933,9.867027999946892,102248.75,66.0,-232.0,1005.0,7.6875,-2.6875,-48.0625,11.9375,-3.25,-14.4375,215.125,2.125,11.875,0.01348876953125,0.1043701171875,-0.94793701171875,-0.30047607421875,32.0,-28.0,29.0,36.0,-202.0,958.0,367,4485,1610,476.00106944679794,4466.97175213033,1362.3782198685703,-12.691248027536455,30.56726730434975,21.221054023167852,
234,23.711000204086304,0.0970001220703125,10.309265376750039,9.868837163590971,102248.75,33.0,-227.0,1010.0,7.0625,-3.875,-46.875,-11.5625,-3.75,6.75,215.25,2.8125,11.9375,0.00762939453125,0.10699462890625,-0.94744873046875,-0.30133056640625,-19.0,-16.0,30.0,49.0,-203.0,958.0,304,4433,1804,441.60085555743836,4460.177401704264,1450.7025758948562,-39.02137384759868,22.820141078334018,89.7000932273099,
235,23.801000118255615,0.08999991416931152,11.11112170750251,9.873534676374904,102246.5,-10.0,-174.0,889.0,7.375,-2.0,-49.25,-16.25,1.25,11.25,214.5,2.75,13.25,0.01104736328125,0.1177978515625,-0.9482421875,-0.29461669921875,-58.0,45.0,-52.0,47.0,-225.0,953.0,335,4421,1920,420.2806844459507,4452.3419213634115,1544.562060715885,-54.257336296761494,14.359295086097408,163.09526631105217,
236,23.901000261306763,0.10000014305114746,9.999985694905718,9.874063738749022,102246.5,65.0,-179.0,932.0,6.25,-0.875,-47.6875,3.25,6.3125,-3.0,214.4375,2.0625,13.75,0.01812744140625,0.11968994140625,-0.94805908203125,-0.29425048828125,42.0,37.0,-6.0,35.0,-233.0,951.0,380,4499,1558,412.2245475567606,4461.673537090729,1547.2496485727083,-56.28273793281481,20.438963195799897,152.60637049449784,
237,24.006999969482422,0.10599970817565918,9.433988236484891,9.872120644031874,102246.5,93.0,-235.0,985.0,7.75,-1.5625,-47.6875,3.3125,0.375,4.5,214.5,2.0,13.375,0.0174560546875,0.1168212890625,-0.9482421875,-0.29473876953125,58.0,-8.0,32.0,35.0,-227.0,953.0,391,4561,1358,407.97963804540854,4481.538829672583,1509.3997188581666,-55.032541944406034,33.29565114265212,113.36084400715647,
238,24.10200023651123,0.0950002670288086,10.526286201877227,9.874699098187817,102243.25,32.0,-248.0,993.0,7.375,-0.875,-47.6875,-0.875,-7.0,13.6875,213.75,2.25,13.4375,0.0150146484375,0.11767578125,-0.95013427734375,-0.288330078125,-3.0,-20.0,35.0,38.0,-227.0,953.0,770,4342,575,480.38371043632685,4453.631063738067,1322.5197750865334,7.890204874267958,8.11197088057532,-46.8386275432765,
239,24.19700026512146,0.09500002861022949,10.526312619366108,9.877257403038687,102243.25,11.0,-236.0,921.0,7.375,-0.0625,-47.6875,-1.9375,-4.1875,8.4375,212.875,2.4375,13.75,0.0133056640625,0.12109375,-0.951904296875,-0.28106689453125,-30.0,-2.0,-30.0,41.0,-233.0,951.0,698,4422,819,523.9069683490615,4447.304850990453,1221.8158200692267,42.55939436216062,2.3597887557649724,-124.85523428638817,
240,24.299999952316284,0.10299968719482422,9.708767349055119,9.876543229257214,102243.25,32.0,-253.0,948.0,5.5625,0.25,-46.875,5.5,-0.6875,-2.875,212.6875,2.4375,13.625,0.0128173828125,0.12005615234375,-0.9525146484375,-0.27947998046875,-9.0,-21.0,-4.0,41.0,-231.0,952.0,538,4329,1451,526.7255746792492,4423.643880792362,1267.6526560553814,41.389440865618525,-15.51026680620541,-80.97490464764553,
241,24.41100001335144,0.11100006103515625,9.00900405526153,9.872598413345893,102243.25,61.0,-233.0,967.0,6.6875,-1.5625,-48.0625,-0.125,-1.6875,-4.0,213.25,2.6875,13.375,0.01055908203125,0.11834716796875,-0.9512939453125,-0.28436279296875,15.0,-6.0,14.0,46.0,-226.0,952.0,344,4481,1858,490.1804597433994,4435.11510463389,1385.7221248443052,12.851352092371531,-6.358464999878126,7.1641638906163365,
242,24.506999969482422,0.09599995613098145,10.416671426762,9.874729681370745,102244.25,49.0,-217.0,921.0,5.875,-1.5625,-47.25,-2.4375,-0.3125,-5.4375,213.6875,2.875,13.4375,0.00933837890625,0.11968994140625,-0.95013427734375,-0.28790283203125,0.0,11.0,-30.0,50.0,-228.0,952.0,352,4483,1804,462.5443677947195,4444.692083707112,1469.3776998754443,-10.30466089862804,1.812675613650633,73.71129640598711,
243,24.605000257492065,0.09800028800964355,10.20405164423187,9.876041351635754,102244.25,35.0,-228.0,955.0,5.875,-1.1875,-47.25,2.625,1.125,-5.1875,214.25,3.0625,13.3125,0.0084228515625,0.11883544921875,-0.94879150390625,-0.2926025390625,-17.0,-2.0,2.0,52.0,-225.0,952.0,371,4472,1728,444.2354942357756,4450.15366696569,1521.1021599003557,-23.89670324285815,5.964330968894118,108.67605430776973,
244,24.701000213623047,0.09599995613098145,10.416671426762,9.878142499890737,102244.25,11.0,-238.0,911.0,5.5625,-1.1875,-46.5,3.3125,7.5625,-8.1875,214.875,2.6875,13.125,0.011474609375,0.1165771484375,-0.94744873046875,-0.2977294921875,-34.0,-15.0,-42.0,46.0,-223.0,953.0,359,4489,1654,427.1883953886205,4457.922933572552,1547.6817279202846,-35.72985720837487,11.736679589525451,121.62703638419454,
245,24.79100012779236,0.08999991416931152,11.11112170750251,9.882618641324548,102244.25,18.0,-215.0,1042.0,7.0625,-0.875,-48.1875,2.875,-0.5625,-16.375,216.0625,2.75,12.625,0.01104736328125,0.1121826171875,-0.94482421875,-0.3076171875,-29.0,0.0,86.0,47.0,-214.0,955.0,386,4474,1554,418.95071631089644,4461.138346858042,1548.9453823362278,-40.026457024465316,13.583922584466452,113.34288216951765,
246,24.880000114440918,0.08899998664855957,11.235956741755135,9.887459761594455,102248.5,94.0,-154.0,965.0,7.0625,-1.5625,-47.25,-8.0,-1.3125,-4.8125,217.4375,3.1875,12.8125,0.00921630859375,0.1146240234375,-0.940673828125,-0.31927490234375,40.0,62.0,11.0,54.0,-217.0,954.0,347,4443,1703,404.5605730487172,4457.510677486433,1579.7563058689825,-49.3943209280974,9.399414663238549,131.27212594950672,
247,24.978000164031982,0.09800004959106445,10.204076469071287,9.88870199287119,102248.5,82.0,-138.0,896.0,6.6875,-1.1875,-47.6875,-0.75,0.4375,14.1875,217.0,3.3125,12.875,0.00799560546875,0.11578369140625,-0.94189453125,-0.3153076171875,26.0,80.0,-57.0,56.0,-218.0,954.0,349,4456,1692,393.4484584389738,4457.208541989147,1602.2050446951862,-54.321900991873655,8.438267677857871,138.80245811788768,
248,25.070000171661377,0.09200000762939453,10.869564315997886,9.892301487908812,102248.5,77.0,-194.0,995.0,6.25,-2.0,-48.5,10.125,-6.4375,18.1875,215.4375,3.4375,12.1875,0.00347900390625,0.11029052734375,-0.9466552734375,-0.30279541015625,17.0,13.0,39.0,59.0,-206.0,956.0,370,4484,1675,388.75876675117905,4462.566833591318,1616.764035756149,-54.06418233304616,12.273177796574945,140.29991035072476,
249,25.2330002784729,0.07200002670288086,13.888883737872115,9.868029851861495,102245.75,29.0,-225.0,934.0,5.5625,-3.5,-46.875,3.4375,-5.8125,28.0625,211.1875,3.625,11.75,-0.0030517578125,0.10736083984375,-0.95751953125,-0.26763916015625,-32.0,-25.0,-23.0,62.0,-200.0,958.0,443,4481,1483,399.6070134009433,4466.253466873054,1590.0112286049193,-38.299647484569725,15.270791125872437,100.88618688346291,
250,25.33400011062622,0.10099983215332031,9.901006552980945,9.868161321083232,102245.75,55.0,-237.0,928.0,5.1875,-3.5,-48.5625,-1.125,-0.8125,10.5625,209.5625,3.8125,11.625,-0.0064697265625,0.10662841796875,-0.96124267578125,-0.25408935546875,-9.0,-39.0,-29.0,65.0,-197.0,958.0,542,4442,1401,428.08561072075463,4461.402773498443,1552.2089828839355,-13.639132669654717,10.396880698763713,64.2983687331703,
251,25.438000202178955,0.10400009155273438,9.615376150827128,9.867127840438494,102245.75,59.0,-230.0,983.0,4.375,-3.875,-48.1875,1.4375,0.3125,3.625,208.8125,3.75,11.625,-0.007080078125,0.10638427734375,-0.9630126953125,-0.2474365234375,-5.0,-32.0,25.0,64.0,-197.0,958.0,672,4351,1158,476.8684885766037,4439.322218798755,1473.3671863071486,23.529141009304666,-6.751767722384985,0.974192492770527,
252,25.539999961853027,0.10199975967407227,9.803944668059783,9.866875504165678,102245.75,36.0,-191.0,879.0,4.375,-4.5625,-48.1875,-13.3125,5.0,1.9375,208.5625,3.6875,12.5625,-0.00482177734375,0.114501953125,-0.96270751953125,-0.24517822265625,-27.0,22.0,-75.0,64.0,-213.0,954.0,506,4448,1392,482.69479086128297,4441.057775039004,1457.093749045719,26.115694533403932,-4.921703711987878,-11.385698971378009,
253,25.63800024986267,0.09800028800964355,10.20405164423187,9.868164347231223,102245.0,-31.0,-268.0,1116.0,4.75,-2.6875,-47.375,15.0625,17.125,-12.625,209.125,2.4375,12.625,0.0067138671875,0.11224365234375,-0.961669921875,-0.25,-74.0,-54.0,160.0,42.0,-214.0,955.0,549,4406,1224,495.9558326890264,4434.046220031203,1410.4749992365753,34.52414544066104,-10.051795270424636,-47.13791021001803,
254,25.734000205993652,0.09599995613098145,10.416671426762,9.870210537296934,102245.0,97.0,-159.0,832.0,5.875,-3.875,-48.1875,-3.6875,0.0,-54.9375,213.3125,1.9375,12.5625,0.01519775390625,0.11004638671875,-0.95208740234375,-0.284912109375,64.0,54.0,-124.0,33.0,-214.0,956.0,375,4415,1610,471.76466615122115,4430.236976024962,1450.3799993892603,12.462445881141562,-12.333139560799808,-11.501140958440267,
255,25.835999965667725,0.10199975967407227,9.803944668059783,9.86994892161549,102245.0,92.0,-234.0,992.0,7.375,-3.875,-48.1875,16.6875,-4.375,-3.25,215.875,2.9375,11.1875,0.00531005859375,0.10101318359375,-0.9464111328125,-0.30670166015625,41.0,-43.0,31.0,50.0,-190.0,960.0,451,4457,1139,467.6117329209769,4435.589580819969,1388.1039995114083,8.36777272313515,-7.3427864391195765,-57.62793828983338,
256,25.930000066757202,0.09400010108947754,10.63828643171471,9.872734259194905,102245.0,30.0,-239.0,1028.0,7.0625,-4.1875,-47.375,-25.125,-2.375,12.1875,215.25,3.1875,11.5625,0.00341796875,0.104736328125,-0.94775390625,-0.30133056640625,-24.0,-43.0,69.0,55.0,-196.0,959.0,386,4416,1462,451.28938633678155,4431.671664655975,1402.883199609127,-5.646964237976332,-9.98674528964442,-41.08423402343719,
257,26.028000116348267,0.09800004959106445,10.204076469071287,9.873981821545232,102243.75,-76.0,-221.0,850.0,6.6875,-3.0625,-48.5625,-15.5,17.125,20.4375,213.25,1.6875,14.25,0.02105712890625,0.12353515625,-0.95062255859375,-0.28399658203125,-106.0,20.0,-99.0,29.0,-242.0,949.0,419,4447,1444,444.8315090694253,4434.73733172478,1411.1065596873016,-10.286191848378639,-6.809028710034257,-31.459539783211547,
258,26.121000289916992,0.09300017356872559,10.752668104011834,9.877110261339837,102243.75,16.0,-212.0,1060.0,7.375,-1.5625,-48.1875,5.4375,3.9375,-40.375,214.5,1.25,14.3125,0.0263671875,0.1226806640625,-0.9473876953125,-0.29437255859375,-5.0,30.0,110.0,21.0,-243.0,949.0,416,4468,1451,439.06520725554026,4441.389865379824,1419.0852477498413,-14.268396054658059,-0.7767320432154783,-22.43115700247558,
259,26.21400022506714,0.09299993515014648,10.752695670007947,9.880216593281755,102243.75,107.0,-228.0,864.0,8.1875,-0.875,-48.5625,10.0625,7.25,-20.0,218.0625,1.625,13.75,0.0252685546875,0.11822509765625,-0.93841552734375,-0.32373046875,79.0,4.0,-87.0,28.0,-233.0,952.0,370,4458,1626,425.25216580443225,4444.71189230386,1460.468198199873,-24.606341745524027,2.0335736522850634,13.559369039663231,
260,26.308000087738037,0.09399986267089844,10.638313414361951,9.88292531294251,102243.75,24.0,-256.0,1073.0,8.875,-1.25,-47.375,-3.5,0.4375,-4.25,218.75,1.75,13.3125,0.02386474609375,0.1148681640625,-0.93670654296875,-0.3299560546875,-6.0,-30.0,119.0,30.0,-226.0,953.0,303,4441,1800,400.80173264354585,4443.969513843088,1528.3745585598986,-42.740229004464865,1.2688690662514703,68.14080173767795,
261,26.39900016784668,0.09100008010864258,10.989001315231004,9.886738071159659,102249.0,-13.0,-217.0,911.0,9.25,-1.25,-46.5625,-4.75,2.0,3.875,218.8125,1.5,14.0625,0.02783203125,0.1202392578125,-0.9359130859375,-0.329833984375,-40.0,20.0,-39.0,26.0,-238.0,950.0,389,4472,1619,398.4413861148367,4449.5756110744705,1546.499646847919,-41.446445906466785,5.914782706521274,78.23055966962826,
262,26.48900032043457,0.09000015258789062,11.111092273131861,9.890897988999749,102249.0,18.0,-214.0,968.0,8.875,-1.0,-47.75,0.375,0.0,-9.875,219.125,1.4375,14.25,0.0296630859375,0.12158203125,-0.934814453125,-0.33233642578125,-6.0,27.0,18.0,24.0,-242.0,949.0,478,4460,1429,414.3531088918694,4451.660488859577,1522.9997174783352,-24.641729831660804,7.243070185654895,52.1013455349774,
263,26.579999923706055,0.09099960327148438,10.989058897505764,9.894657665722441,102249.0,72.0,-222.0,886.0,9.6875,-1.25,-47.75,-2.625,4.625,3.9375,219.5625,1.4375,14.5,0.030517578125,0.123291015625,-0.9332275390625,-0.3360595703125,46.0,23.0,-62.0,25.0,-245.0,949.0,377,4445,1634,406.8824871134956,4450.328391087662,1545.1997739826681,-29.06563954433543,5.558189214153122,66.87428701974756,
264,26.67300009727478,0.09300017356872559,10.752668104011834,9.897649272193167,102249.0,3.0,-283.0,1026.0,9.6875,-1.25,-47.75,-0.9375,-4.75,12.5625,218.375,1.125,14.5,0.031982421875,0.12286376953125,-0.93670654296875,-0.3262939453125,-20.0,-40.0,97.0,19.0,-246.0,949.0,391,4448,1627,403.70598969079646,4449.86271287013,1561.5598191861347,-29.45758363342562,4.744647829301675,75.27035540966904,
265,26.763999938964844,0.09099984169006348,10.989030106292951,9.901360058449075,102246.5,36.0,-231.0,830.0,9.6875,-0.5625,-47.0,-12.0,1.5,12.3125,217.625,1.375,15.5,0.0318603515625,0.131591796875,-0.937744140625,-0.31982421875,9.0,29.0,-136.0,23.0,-262.0,944.0,344,4444,1639,391.7647917526372,4448.690170296104,1577.047855348908,-37.29345783451976,3.3871568116355277,82.57982221048977,
266,26.855000019073486,0.09100008010864258,10.989001315231004,9.905045608306693,102246.5,-34.0,-288.0,1005.0,8.875,-0.5625,-47.375,1.0625,-0.625,9.375,216.5,1.1875,15.625,0.03240966796875,0.1326904296875,-0.94073486328125,-0.31036376953125,-55.0,-23.0,61.0,21.0,-264.0,944.0,358,4498,1558,385.0118334021098,4458.552136236884,1573.2382842791262,-40.13589823232648,11.471078802576814,72.99769552506721,
267,26.94600009918213,0.09100008010864258,10.989001315231004,9.908706265020166,102246.5,25.0,-277.0,930.0,8.5625,-0.5625,-47.75,-1.9375,-3.1875,-4.875,216.625,1.375,15.5,0.03076171875,0.13238525390625,-0.94049072265625,-0.31146240234375,1.0,-14.0,-13.0,24.0,-262.0,944.0,362,4485,1589,380.40946672168786,4463.8417089895065,1576.390627423301,-40.93974090827091,15.063594123818314,70.04423789735664,
268,27.039000034332275,0.09299993515014648,10.752695670007947,9.911609144558302,102246.5,15.0,-273.0,1000.0,7.75,0.1875,-47.75,-2.8125,0.25,6.3125,216.375,1.375,15.625,0.03070068359375,0.1331787109375,-0.94110107421875,-0.30926513671875,-8.0,-9.0,56.0,24.0,-264.0,944.0,306,4454,1720,365.5275733773503,4461.873367191605,1605.112501938641,-50.10895705797282,12.273993891075351,88.43132491090182,
269,27.134000062942505,0.09500002861022949,10.526312619366108,9.913761309648523,102244.75,23.0,-256.0,937.0,8.875,0.1875,-46.5625,-0.0625,-1.9375,1.5625,216.0625,1.1875,15.75,0.03216552734375,0.1339111328125,-0.94171142578125,-0.3070068359375,2.0,9.0,-6.0,21.0,-266.0,943.0,344,4454,1666,361.22205870188026,4460.298693753284,1617.2900015509128,-49.74029926102641,10.052582485303734,91.49229381651817,
270,27.22100019454956,0.08700013160705566,11.494235485948398,9.91881261049555,102244.75,-14.0,-295.0,981.0,7.75,0.5,-47.375,10.625,-3.5625,0.625,216.0,1.125,15.375,0.03143310546875,0.12982177734375,-0.9423828125,-0.30682373046875,-39.0,-35.0,58.0,20.0,-258.0,945.0,369,4496,1614,362.7776469615042,4467.438955002627,1616.6320012407302,-44.5335132892297,15.598065639733155,83.86501998298618,
271,27.31599998474121,0.09499979019165039,10.526339036987586,9.920925470470834,102244.75,29.0,-242.0,830.0,8.1875,0.1875,-47.0,-5.8125,7.3125,-2.3125,216.5,1.25,15.375,0.0311279296875,0.1309814453125,-0.94091796875,-0.310791015625,8.0,15.0,-137.0,21.0,-261.0,944.0,361,4469,1640,362.42211756920335,4467.751164002102,1621.3056009925842,-41.39259933087394,14.650068754446835,81.19549739865836,
272,27.41000008583069,0.09400010108947754,10.63828643171471,9.923385594610323,102244.75,-26.0,-291.0,1077.0,8.5625,-1.0,-47.0,1.3125,0.0,-8.875,216.4375,1.0,15.0,0.0323486328125,0.1273193359375,-0.9415283203125,-0.31024169921875,-44.0,-37.0,130.0,17.0,-254.0,946.0,383,4503,1557,366.5376940553627,4474.800931201682,1608.4444807940677,-34.83410270755939,19.296816551799413,64.4082825001128,
273,27.50600004196167,0.09599995613098145,10.416671426762,9.92510723418621,102250.5,39.0,-201.0,841.0,8.5625,-1.0,-47.75,-3.25,-0.375,-7.75,217.5625,1.5625,15.5625,0.030517578125,0.1328125,-0.93780517578125,-0.31939697265625,12.0,61.0,-104.0,26.0,-262.0,944.0,374,4484,1607,368.0301552442902,4476.640744961346,1608.1555846352544,-30.95479800676388,19.28664630471685,59.217125847667646,
274,27.604000091552734,0.09800004959106445,10.204076469071287,9.926097634083415,102250.5,40.0,-265.0,980.0,8.875,-0.1875,-48.1875,-5.125,1.5625,-6.25,217.4375,1.4375,15.1875,0.03009033203125,0.1295166015625,-0.9385986328125,-0.318359375,14.0,-8.0,34.0,25.0,-257.0,945.0,335,4481,1712,361.42412419543217,4477.512595969077,1628.9244677082038,-33.761728900672765,18.486599984397674,70.97580702852258,
275,27.70799994468689,0.10399985313415527,9.615398193976713,9.924931447559507,102250.5,-1.0,-275.0,1007.0,8.5625,1.25,-48.1875,2.0,-4.375,1.125,217.875,1.5,15.1875,0.03033447265625,0.12982177734375,-0.9373779296875,-0.32171630859375,-28.0,-17.0,61.0,26.0,-257.0,945.0,370,4463,1589,363.13929935634576,4474.610076775261,1620.939574166563,-29.892184680186592,14.91414819390605,59.5987692049934,
276,27.807000160217285,0.09900021553039551,10.100988110404419,9.925558255466393,102250.5,15.0,-250.0,896.0,8.875,0.5,-48.1875,-0.1875,0.0,-2.625,218.25,1.5625,15.25,0.0303955078125,0.1300048828125,-0.93634033203125,-0.32470703125,-11.0,7.0,-48.0,26.0,-258.0,945.0,404,4475,1574,371.3114394850766,4474.688061420209,1611.5516593332504,-21.234391308493294,13.826413374773933,47.70796833552486,
277,27.902000188827515,0.09500002861022949,10.526312619366108,9.927603688817836,102248.0,33.0,-267.0,946.0,8.5625,0.5,-47.375,0.75,2.9375,-1.3125,218.375,1.5,15.1875,0.03076171875,0.12933349609375,-0.9359130859375,-0.326171875,7.0,-10.0,0.0,26.0,-257.0,946.0,307,4454,1737,358.44915158806134,4470.550449136167,1636.6413274666006,-30.024562859868247,9.408136914150559,64.3702849258494,
278,27.998000144958496,0.09599995613098145,10.416671426762,9.92928061149605,102248.0,21.0,-259.0,973.0,8.1875,1.25,-47.75,2.0,-1.0625,-4.3125,218.6875,1.4375,15.125,0.0316162109375,0.1285400390625,-0.93511962890625,-0.32867431640625,-3.0,-3.0,27.0,24.0,-256.0,946.0,355,4469,1651,357.7593212704491,4470.240359308934,1639.5130619732806,-28.265973173084877,8.43499237584457,61.717144424694474,
279,28.08900022506714,0.09100008010864258,10.989001315231004,9.932713794171118,102248.0,41.0,-237.0,933.0,8.1875,-1.25,-47.75,0.875,0.1875,-2.8125,218.9375,1.5625,15.0,0.0301513671875,0.12786865234375,-0.9345703125,-0.33062744140625,13.0,16.0,-13.0,27.0,-253.0,946.0,371,4494,1608,360.4074570163593,4474.992287447148,1633.2104495786248,-23.84876496476413,11.806356694079543,51.63194928013464,
280,28.18500018119812,0.09599995613098145,10.416671426762,9.934362185556582,102248.0,1.0,-243.0,960.0,8.5625,-1.0,-47.0,2.0625,-0.0625,1.6875,218.75,1.5625,14.8125,0.029541015625,0.1265869140625,-0.93524169921875,-0.3292236328125,-25.0,7.0,12.0,27.0,-251.0,947.0,376,4460,1556,363.5259656130874,4471.993829957719,1617.7683596629,-19.511105149166273,8.492253351639418,35.270440572378476,
281,28.27999997138977,0.09499979019165039,10.526339036987586,9.936350787987315,102245.25,32.0,-251.0,952.0,8.875,-0.5625,-48.5625,0.6875,-0.125,4.0,218.5,1.4375,14.75,0.0301513671875,0.12603759765625,-0.9359130859375,-0.32757568359375,6.0,-1.0,5.0,25.0,-250.0,947.0,334,4463,1707,357.62077249046996,4470.195063966175,1635.6146877303202,-22.795075049022486,6.380399451573628,47.01956713313425,
282,28.375999927520752,0.09599995613098145,10.416671426762,9.937975779542466,102245.25,25.0,-257.0,953.0,8.875,-0.1875,-47.375,-0.1875,-3.625,3.375,218.1875,1.5,14.8125,0.029541015625,0.12615966796875,-0.93695068359375,-0.324462890625,0.0,-6.0,19.0,25.0,-250.0,947.0,390,4498,1600,364.09661799237597,4475.756051172941,1628.4917501842563,-15.84568415035288,10.349485887482627,37.68586836305948,
283,28.469000101089478,0.09300017356872559,10.752668104011834,9.94063714900791,102245.25,22.0,-248.0,915.0,8.5625,0.1875,-49.0,-1.8125,1.9375,4.1875,217.875,1.5625,14.9375,0.02923583984375,0.127685546875,-0.93756103515625,-0.32220458984375,-6.0,2.0,-48.0,26.0,-253.0,947.0,347,4491,1637,360.67729439390075,4478.804840938353,1630.193400147405,-17.456614058961406,12.076837558058013,36.19294684989054,
284,28.55999994277954,0.09099984169006348,10.989030106292951,9.943977610959347,102245.25,-5.0,-280.0,986.0,8.875,0.1875,-48.5625,4.6875,2.3125,0.125,217.6875,1.1875,14.8125,0.031494140625,0.12579345703125,-0.93841552734375,-0.32025146484375,-26.0,-29.0,38.0,21.0,-251.0,947.0,362,4484,1551,360.9418355151206,4479.843872750683,1614.3547201179242,-15.888611899822699,12.026103359853511,20.00410660248018,
285,28.651999950408936,0.09200000762939453,10.869564315997886,9.946949619338259,102246.0,55.0,-223.0,944.0,8.5625,-2.0625,-46.1875,-9.3125,-0.5625,-8.0625,218.25,1.5625,14.8125,0.029052734375,0.12652587890625,-0.93670654296875,-0.32525634765625,27.0,27.0,253.0,26.0,-249.0,948.0,357,4479,1643,360.15346841209646,4479.675098200546,1620.0837760943396,-15.325017717218566,10.958836452418451,23.2587607593203,
286,28.742000102996826,0.09000015258789062,11.111092273131861,9.950594912501577,102246.0,-22.0,-274.0,982.0,9.6875,0.1875,-47.75,5.9375,1.0625,8.4375,218.125,1.125,14.9375,0.0330810546875,0.126220703125,-0.93707275390625,-0.3238525390625,-41.0,-21.0,34.0,19.0,-252.0,947.0,366,4496,1657,361.3227747296772,4482.940078560437,1627.467020875472,-13.14458653294769,12.908373395332738,27.784601561800265,
287,28.835999965667725,0.09399986267089844,10.638313414361951,9.952836743712842,102246.0,28.0,-220.0,971.0,8.1875,-0.5625,-48.1875,-8.9375,-5.75,-13.25,218.625,1.6875,14.75,0.02838134765625,0.1263427734375,-0.9361572265625,-0.32818603515625,0.0,28.0,23.0,28.0,-248.0,948.0,355,4470,1592,360.0582197837418,4480.352062848349,1620.3736167003776,-13.168313721940478,9.794455229373304,19.834624268758102,
288,28.92300009727478,0.08700013160705566,11.494235485948398,9.95747325766307,102246.0,-24.0,-279.0,950.0,8.5625,-2.0625,-47.75,6.8125,4.5,13.0,218.375,1.25,14.9375,0.032470703125,0.12567138671875,-0.93670654296875,-0.32513427734375,-44.0,-27.0,3.0,20.0,-251.0,947.0,347,4541,1608,357.44657582699347,4492.48165027868,1617.8988933603023,-14.465805064963634,19.775647915626184,16.117089131892023,
289,29.015000104904175,0.09200000762939453,10.869564315997886,9.960365292266625,102246.0,29.0,-251.0,982.0,9.25,-1.6875,-47.375,-7.6875,-3.875,-15.5,218.5,1.0625,14.3125,0.03228759765625,0.1221923828125,-0.93597412109375,-0.32861328125,37.0,11.0,-83.0,19.0,-245.0,949.0,398,4511,1548,365.5572606615948,4496.185320222944,1603.9191146882417,-6.563648069811872,21.352733483282403,3.1756073069842614,
290,29.106000185012817,0.09100008010864258,10.989001315231004,9.963581328819135,102245.25,-48.0,-281.0,1124.0,9.25,-1.6875,-47.0,14.75,-4.5625,8.375,218.6875,0.8125,14.0625,0.03387451171875,0.1182861328125,-0.936279296875,-0.3289794921875,-62.0,-42.0,173.0,14.0,-239.0,950.0,411,4518,1490,374.6458085292758,4500.548256178356,1581.1352917505935,1.6320557958681219,23.400284794395702,-16.347516893194626,
291,29.195000171661377,0.08899998664855957,11.235956741755135,9.967460122931053,102245.25,71.0,-204.0,671.0,8.5625,0.1875,-47.0,-14.375,13.3125,-3.0625,219.1875,0.625,14.8125,0.03778076171875,0.12353515625,-0.9342041015625,-0.33258056640625,59.0,46.0,-276.0,11.0,-251.0,947.0,368,4483,1532,373.3166468234207,4497.038604942685,1571.308233400475,0.35643843549276655,18.562022576603958,-23.590821086507518,
292,29.283999919891357,0.08899974822998047,11.235986841400297,9.971315421349152,102245.25,-12.0,-283.0,1167.0,10.375,-1.0,-48.1875,1.4375,-4.5625,-9.0625,218.8125,0.5625,13.9375,0.03515625,0.11627197265625,-0.9361572265625,-0.3299560546875,-22.0,-47.0,216.0,10.0,-236.0,951.0,421,4508,1492,382.85331745873657,4499.230883954148,1555.4465867203803,8.579843420186522,19.029443033867253,-35.497364373143796,
293,29.371000051498413,0.08700013160705566,11.494235485948398,9.975826478031417,102245.25,33.0,-269.0,961.0,10.0625,-0.5625,-47.0,11.6875,-7.125,3.375,219.5625,0.1875,14.125,0.039794921875,0.1168212890625,-0.93359375,-0.33636474609375,29.0,-29.0,11.0,4.0,-240.0,950.0,383,4519,1517,382.88265396698927,4503.184707163319,1547.7572693763045,7.945159933364943,21.063531398032882,-39.569544785894294,
294,29.460000038146973,0.08899998664855957,11.235956741755135,9.979633388299634,102246.5,25.0,-241.0,848.0,10.0625,-1.25,-46.5625,-14.75,1.8125,-7.0,219.5625,0.5,14.4375,0.038330078125,0.11993408203125,-0.933349609375,-0.33612060546875,16.0,3.0,-101.0,8.0,-244.0,949.0,357,4534,1614,377.70612317359144,4509.347765730656,1561.0058155010436,2.8548103613382736,24.773724658765587,-25.06046281892933,
295,29.55999994277954,0.09999990463256836,10.000009536752259,9.979702319724058,102246.5,-43.0,-292.0,1018.0,10.0625,-0.1875,-47.375,-3.4375,2.6875,-6.875,219.75,0.375,14.6875,0.0404052734375,0.121826171875,-0.93255615234375,-0.3375244140625,-50.0,-42.0,70.0,6.0,-249.0,948.0,359,4475,1632,373.9648985388732,4502.478212584525,1575.2046524008351,-0.24575575251103832,17.576586893001494,-12.197692342401453,
296,29.651999950408936,0.09200000762939453,10.869564315997886,9.982463256948638,102246.5,24.0,-290.0,1044.0,11.5,1.25,-48.1875,-2.3125,-0.9375,-20.375,221.4375,0.0625,14.6875,0.0447998046875,0.12017822265625,-0.92742919921875,-0.351318359375,23.0,-42.0,87.0,0.0,-249.0,948.0,362,4480,1645,371.5719188310985,4497.98257006762,1589.1637219206682,-2.229652366288842,12.460532690339559,0.42466327113642066,
297,29.749000310897827,0.0970003604888916,10.309240037458615,9.98352875377803,102246.5,33.0,-236.0,887.0,11.0625,0.875,-47.75,-5.125,9.125,-18.5,223.5625,0.0,15.25,0.048828125,0.12335205078125,-0.92022705078125,-0.3681640625,32.0,21.0,-58.0,0.0,-257.0,946.0,444,4515,1612,386.05753506487883,4501.386056054096,1593.7309775365347,9.440879368945637,14.202797931083882,4.017504152401645,
298,29.8510000705719,0.10199975967407227,9.803944668059783,9.982915121620271,102247.5,-49.0,-247.0,941.0,12.1875,0.5,-47.75,5.5625,15.5625,-21.9375,225.1875,-0.5625,14.8125,0.0546875,0.11737060546875,-0.91534423828125,-0.38134765625,-34.0,5.0,-10.0,-10.0,-251.0,947.0,492,4446,1737,407.24602805190307,4490.308844843277,1622.384782029228,24.709204246552414,4.746954324769895,25.33902049340087,
299,29.94700002670288,0.09599995613098145,10.416671426762,9.984305597668891,102247.5,-39.0,-235.0,959.0,12.1875,0.875,-47.0,9.0,15.0625,-35.3125,228.0,-1.3125,14.0625,0.06048583984375,0.10748291015625,-0.906494140625,-0.40380859375,-16.0,3.0,8.0,-22.0,-239.0,950.0,413,4522,1644,408.3968224415225,4496.647075874622,1626.7078256233824,23.72962894137273,9.465230637955184,26.855358716067304,
300,30.045000314712524,0.09800028800964355,10.20405164423187,9.985022361710381,102247.5,-20.0,-266.0,927.0,13.6875,1.25,-47.375,2.5,30.1875,-36.4375,231.8125,-2.375,13.8125,0.07196044921875,0.09912109375,-0.89251708984375,-0.43408203125,21.0,-31.0,-23.0,-41.0,-234.0,951.0,324,4461,1986,391.517457953218,4489.517660699697,1698.566260498706,8.640128676930667,3.1347409896990452,81.24752899662366,
301,30.142000198364258,0.0969998836517334,10.309290716166029,9.9860658887639,102247.5,-79.0,-270.0,1026.0,14.875,2.0,-46.1875,10.0,21.0625,-56.125,237.0,-3.5,13.0625,0.081787109375,0.08538818359375,-0.87255859375,-0.4739990234375,-19.0,-39.0,47.0,-60.0,-222.0,953.0,304,4564,1801,374.0139663625744,4504.414128559758,1719.053008398965,-5.919702149598228,14.718411305123052,91.25416493869179,
