Index,Time,Difference,Hz,AveHz,Pressure,Acceleration-X,Acceleration-Y,Acceleration-Z,Magnetic-X,Magnetic-Y,Magnetic-Z,Angular-Vel-X,Angular-Vel-Y,Angular-Vel-Z,Heading,Roll,Pitch,Quaternion-X,Quaternion-Y,Quaternion-Z,Quaternion-W,Linear-Acceleration-X,Linear-Acceleration-Y,Linear-Acceleration-Z,Gravity-X,Gravity-Y,Gravity-Z,Position-X,Position-Y,Position-Z
0,2.86102294921875e-06,2.86102294921875e-06,349525.3333333333,0.0,2.6328984200881646e-38,482.0,-979.0,-135.0,-11.6875,19.875,23.6875,-9.75,49.3125,-0.5625,42.0,26.625,102.9375,-0.77001953125,-0.08404541015625,-0.2269287109375,0.59033203125,35.0,-117.0,68.0,440.0,-854.0,-196.0,3996,1038,1233,
1,0.06478285789489746,0.06477999687194824,15.43686397479638,15.436182232379775,2.6328984200881646e-38,461.0,-929.0,-112.0,-13.5,19.1875,22.5,-39.5625,55.8125,5.4375,45.375,27.0,102.625,-0.770263671875,-0.0655517578125,-0.2449951171875,0.5850830078125,16.0,-77.0,79.0,445.0,-852.0,-191.0,4051,1034,1354,
2,0.13152289390563965,0.06674003601074219,14.983510045440257,15.206478055713164,2.6328984200881646e-38,455.0,-852.0,-145.0,-14.5625,18.75,22.5,-59.125,41.5625,-9.6875,51.0625,28.0,104.6875,-0.781005859375,-0.04498291015625,-0.26861572265625,0.56201171875,3.0,-6.0,9.0,461.0,-837.0,-219.0,4081,1043,1338,
3,0.20145082473754883,0.06992793083190918,14.300437437563716,14.891971794647231,2.6336876313832723e-38,514.0,-839.0,-260.0,-16.0625,17.6875,22.0625,-36.3125,18.1875,-22.5,56.6875,29.875,107.1875,-0.791748046875,-0.03753662109375,-0.28955078125,0.53656005859375,43.0,-36.0,17.0,489.0,-811.0,-251.0,4053,956,1444,
4,0.27977776527404785,0.07832694053649902,12.766999363827022,14.297061798609768,2.6336876313832723e-38,497.0,-841.0,-153.0,-17.5625,14.6875,23.25,-32.75,4.625,13.4375,58.6875,30.0,109.25,-0.80126953125,-0.0299072265625,-0.29296875,0.52081298828125,-1.0,-42.0,107.0,490.0,-801.0,-280.0,4000,846,1319,
5,0.34432482719421387,0.06454706192016602,15.49257193513833,14.521171885115873,2.6336876313832723e-38,452.0,-839.0,-190.0,-16.5,15.5,23.25,-36.625,7.6875,30.25,58.75,28.625,110.875,-0.81005859375,-0.0133056640625,-0.28753662109375,0.51080322265625,-17.0,-35.0,116.0,470.0,-804.0,-306.0,3940,795,1157,
6,0.41746997833251953,0.07314515113830566,13.671446219437861,14.372290970396277,2.6336876313832723e-38,411.0,-777.0,-164.0,-17.5625,14.25,25.0,-38.6875,14.0625,31.5625,59.1875,26.875,112.5,-0.8189697265625,0.0113525390625,-0.28338623046875,0.4989013671875,-32.0,30.0,170.0,444.0,-807.0,-334.0,4182,939,1205,
7,0.48352694511413574,0.06605696678161621,15.13844865608183,14.476959496740479,2.6336876313832723e-38,434.0,-858.0,-224.0,-17.5625,14.0,25.0,-25.375,23.8125,26.1875,60.125,25.75,113.625,-0.82440185546875,0.032470703125,-0.283203125,0.489013671875,10.0,-49.0,140.0,424.0,-809.0,-355.0,4102,975,1210,
9,0.5907919406890869,0.03703022003173828,27.004970511730924,15.233789393779805,2.6340463637901394e-38,466.0,-835.0,-157.0,-17.5625,14.0,24.0625,-28.125,25.8125,21.0,63.25,24.6875,114.0625,-0.82489013671875,0.07049560546875,-0.29425048828125,0.4775390625,72.0,-35.0,169.0,410.0,-813.0,-363.0,3960,1040,1377,
10,0.6640968322753906,0.07330489158630371,13.641654442973627,15.058045022948033,2.6340463637901394e-38,434.0,-764.0,-243.0,-18.25,13.5625,25.6875,-12.4375,22.0625,46.9375,63.6875,23.375,114.4375,-0.825439453125,0.09326171875,-0.2939453125,0.47283935546875,45.0,54.0,129.0,389.0,-819.0,-372.0,3999,1044,1263,
11,0.734687089920044,0.07059025764465332,14.166260803777396,14.972360547668165,2.6340463637901394e-38,287.0,-836.0,-223.0,-18.6875,14.375,26.5,-5.4375,40.375,72.375,62.3125,20.5625,113.5625,-0.8175048828125,0.1346435546875,-0.28961181640625,0.479248046875,-49.0,8.0,142.0,337.0,-844.0,-365.0,4026,1162,1212,
12,0.8041868209838867,0.06949973106384277,14.3885448863305,14.921905814520231,2.6340463637901394e-38,267.0,-874.0,-204.0,-18.5625,15.1875,25.25,-26.0625,72.625,53.875,64.1875,17.8125,112.6875,-0.8062744140625,0.183837890625,-0.29888916015625,0.47625732421875,-33.0,-13.0,155.0,300.0,-860.0,-360.0,4016,1317,1259,
13,0.869269847869873,0.06508302688598633,15.364989120002344,14.955079866000435,2.6340463637901394e-38,246.0,-917.0,-198.0,-20.5,17.0,24.375,-44.1875,102.25,30.125,70.1875,17.6875,112.875,-0.7960205078125,0.2279052734375,-0.322509765625,0.458740234375,-51.0,-57.0,165.0,298.0,-860.0,-363.0,3969,1420,1338,
14,0.93424391746521,0.06497406959533691,15.390755207855541,14.985379875937316,2.6340463637901394e-38,386.0,-876.0,-262.0,-22.6875,17.375,23.0,-44.625,123.5,3.5625,80.0625,19.625,113.375,-0.78466796875,0.26708984375,-0.36004638671875,0.42816162109375,0.0,-69.0,153.0,329.0,-847.0,-366.0,3952,1541,1391,
15,1.0067369937896729,0.07249307632446289,13.794420801294489,14.899621343540094,2.633615884901899e-38,635.0,-789.0,-387.0,-24.875,16.1875,21.6875,-32.5625,116.125,25.75,94.3125,23.125,112.9375,-0.76263427734375,0.3123779296875,-0.41534423828125,0.385009765625,249.0,41.0,-36.0,385.0,-830.0,-351.0,3971,1626,1424,
16,1.0749168395996094,0.06817984580993652,14.667090958047607,14.884872401812743,2.633615884901899e-38,633.0,-719.0,-337.0,-30.75,15.75,18.1875,-16.0,102.1875,90.5,100.4375,22.25,111.0625,-0.73193359375,0.36138916015625,-0.4425048828125,0.371337890625,278.0,127.0,2.0,372.0,-846.0,-326.0,4015,1723,1478,
17,1.141982078552246,0.06706523895263672,14.910854201328156,14.8863982362594,2.633615884901899e-38,501.0,-733.0,-350.0,-30.6875,18.0,17.1875,-20.625,89.125,109.6875,101.9375,17.8125,109.125,-0.678955078125,0.441162109375,-0.45648193359375,0.3687744140625,195.0,152.0,-39.0,288.0,-886.0,-305.0,4091,1770,1473,
18,1.211073875427246,0.069091796875,14.473498233215548,14.86284228007966,2.633615884901899e-38,340.0,-738.0,-409.0,-30.5625,20.5625,14.25,-42.125,87.0,73.0,104.125,13.8125,109.25,-0.6448974609375,0.49444580078125,-0.4598388671875,0.35809326171875,105.0,160.0,-94.0,234.0,-898.0,-314.0,4186,1833,1493,
19,1.2778348922729492,0.06676101684570312,14.97880121135935,14.86890060280303,2.633615884901899e-38,343.0,-814.0,-314.0,-29.875,25.75,11.25,-47.3125,99.125,-9.5,112.375,14.375,110.8125,-0.62030029296875,0.53619384765625,-0.4757080078125,0.31854248046875,100.0,73.0,23.0,252.0,-884.0,-340.0,4234,1897,1496,
20,1.3451800346374512,0.06734514236450195,14.848880927262043,14.867898337035859,2.6335441384205254e-38,407.0,-1239.0,-216.0,-29.875,26.375,10.5,-9.125,60.375,-47.8125,123.6875,18.75,111.5,-0.61212158203125,0.5467529296875,-0.5037841796875,0.26934814453125,91.0,-375.0,123.0,316.0,-863.0,-340.0,4275,1936,1502,
21,1.4140729904174805,0.0688929557800293,14.51527211567079,14.850718557180075,2.6335441384205254e-38,365.0,-849.0,-107.0,-33.875,21.1875,6.1875,45.1875,18.0,20.0,126.6875,20.9375,109.375,-0.6083984375,0.53375244140625,-0.52490234375,0.26348876953125,14.0,14.0,196.0,350.0,-863.0,-304.0,4334,1962,1420,
24,1.5512800216674805,0.03147292137145996,31.77334535289795,15.47109462171907,2.6335441384205254e-38,224.0,-806.0,-229.0,-32.0,27.1875,1.875,5.1875,73.0625,68.0,124.875,10.0,101.8125,-0.474609375,0.61297607421875,-0.56011962890625,0.2919921875,54.0,138.0,-31.0,170.0,-945.0,-198.0,4412,2105,1367,
25,1.626194953918457,0.07491493225097656,13.348473661430354,15.373310524522502,2.6335441384205254e-38,205.0,-712.0,-356.0,-27.5625,30.75,-2.25,-39.5625,106.1875,-9.5,131.0625,9.5625,102.25,-0.43804931640625,0.6427001953125,-0.57208251953125,0.26019287109375,42.0,232.0,-150.0,163.0,-944.0,-205.0,4407,2035,1392,
26,1.693479061126709,0.06728410720825195,14.862350731724602,15.353009432960823,2.6335441384205254e-38,274.0,-1478.0,-484.0,-28.0,31.5,-3.1875,-54.3125,65.6875,-71.625,142.4375,14.4375,104.25,-0.4361572265625,0.655029296875,-0.58416748046875,0.1986083984375,29.0,-558.0,-250.0,230.0,-925.0,-228.0,4421,2110,1354,
27,1.7652781009674072,0.07179903984069824,13.927762853357331,15.295040472775064,2.633113659532285e-38,342.0,-949.0,-669.0,-30.5,30.75,-4.1875,-17.75,7.1875,-12.0625,147.4375,17.75,106.8125,-0.45538330078125,0.6561279296875,-0.57769775390625,0.16851806640625,43.0,-55.0,-398.0,299.0,-893.0,-270.0,4437,2153,1347,
28,1.8337018489837646,0.06842374801635742,14.614808878358131,15.269657941130161,2.633113659532285e-38,253.0,-800.0,-259.0,-32.0,28.875,-4.5625,52.375,22.5,125.0,143.375,13.875,103.8125,-0.42315673828125,0.66119384765625,-0.588134765625,0.19451904296875,18.0,123.0,-31.0,235.0,-924.0,-228.0,4438,2200,1325,
29,1.9054150581359863,0.07171320915222168,13.944432438901947,15.219781053042523,2.633113659532285e-38,144.0,-768.0,-132.0,-30.5,30.375,-5.0,12.6875,33.75,101.375,135.9375,5.3125,100.9375,-0.3558349609375,0.68402099609375,-0.59033203125,0.23876953125,52.0,189.0,52.0,91.0,-958.0,-185.0,4429,2243,1306,
30,1.9730169773101807,0.06760191917419434,14.792479447561746,15.205140323171005,2.633113659532285e-38,205.0,-663.0,-274.0,-23.0625,36.1875,-7.0,-19.3125,-17.5,-19.875,134.0625,3.3125,101.8125,-0.34466552734375,0.69537353515625,-0.5806884765625,0.2459716796875,148.0,294.0,-73.0,57.0,-958.0,-200.0,4405,2250,1264,
31,2.039651870727539,0.0666348934173584,15.00715238991438,15.198672109148887,2.633113659532285e-38,211.0,-615.0,-295.0,-22.0,37.6875,-7.0,-38.0625,29.25,-64.25,137.3125,5.875,103.8125,-0.36224365234375,0.698486328125,-0.574951171875,0.224365234375,110.0,331.0,-61.0,101.0,-947.0,-233.0,4362,2257,1227,
32,2.1056888103485107,0.06603693962097168,15.143039725033306,15.196927410514999,2.6330419130509114e-38,300.0,-862.0,-131.0,-23.5625,36.1875,-5.0,-30.5625,21.875,-88.9375,145.6875,12.3125,105.875,-0.3975830078125,0.68988037109375,-0.57818603515625,0.17816162109375,90.0,58.0,131.0,209.0,-921.0,-262.0,4296,2274,1183,
33,2.1721959114074707,0.06650710105895996,15.03598839939631,15.191999868288908,2.6330419130509114e-38,237.0,-978.0,-270.0,-29.0,31.375,-4.375,-57.1875,28.9375,-74.5625,153.375,17.5625,109.0625,-0.4276123046875,0.68768310546875,-0.57098388671875,0.1348876953125,-59.0,-95.0,35.0,296.0,-883.0,-305.0,4229,2289,1141,
34,2.2374820709228516,0.06528615951538086,15.317182193331629,15.195652488950076,2.6330419130509114e-38,288.0,-1012.0,-340.0,-31.1875,31.0,-3.6875,-47.75,19.9375,-85.6875,160.9375,22.625,112.4375,-0.457763671875,0.68316650390625,-0.5611572265625,0.0941162109375,-88.0,-175.0,4.0,377.0,-836.0,-345.0,4184,2267,1214,
35,2.3058230876922607,0.06834101676940918,14.632501055319683,15.17896155469112,2.6330419130509114e-38,404.0,-1028.0,-214.0,-33.5,28.5,-1.6875,-5.0625,21.5625,-65.875,169.25,28.0,114.25,-0.481201171875,0.67059326171875,-0.5621337890625,0.05267333984375,-56.0,-239.0,141.0,461.0,-788.0,-355.0,4154,2255,1266,
38,2.4490859508514404,0.04128718376159668,24.22059120753475,15.515992808169536,2.6330419130509114e-38,447.0,-784.0,-224.0,-38.5625,23.0625,-1.1875,7.5625,-6.625,4.4375,171.0,30.1875,115.6875,-0.50299072265625,0.65924072265625,-0.5572509765625,0.0435791015625,-45.0,-21.0,143.0,493.0,-763.0,-367.0,4124,2285,1324,
39,2.5131239891052246,0.06403803825378418,15.615718833187513,15.518533971690589,2.632611434162671e-38,376.0,-720.0,-300.0,-39.6875,24.0,-1.875,1.875,-17.5,12.4375,167.9375,29.25,115.5625,-0.5093994140625,0.65509033203125,-0.554931640625,0.05853271484375,-102.0,50.0,69.0,479.0,-771.0,-369.0,4099,2340,1296,
40,2.5837719440460205,0.0706479549407959,14.154691396771723,15.481242488206052,2.632611434162671e-38,367.0,-676.0,-374.0,-37.5625,24.25,0.0625,17.875,-15.125,-17.75,165.75,29.125,115.6875,-0.52105712890625,0.64654541015625,-0.5528564453125,0.06903076171875,-110.0,95.0,-2.0,477.0,-771.0,-371.0,4071,2392,1249,
41,2.650509834289551,0.06673789024353027,14.983991797627171,15.468722081157544,2.632611434162671e-38,421.0,-754.0,-362.0,-38.25,23.5625,-1.0625,29.1875,-10.5625,-9.5,164.0625,29.6875,114.6875,-0.5313720703125,0.6318359375,-0.558837890625,0.0780029296875,-64.0,18.0,-6.0,485.0,-773.0,-356.0,4034,2439,1177,
42,2.7181999683380127,0.06769013404846191,14.773201649801171,15.451401842845298,2.632611434162671e-38,483.0,-933.0,-312.0,-39.375,24.0,-0.375,13.125,-23.75,-6.25,161.3125,29.625,113.9375,-0.5423583984375,0.6182861328125,-0.56134033203125,0.09228515625,-1.0,-154.0,33.0,485.0,-778.0,-345.0,3966,2471,1132,
43,2.7903130054473877,0.072113037109375,13.867118070249683,15.410457506399197,2.632611434162671e-38,391.0,-879.0,-477.0,-39.0,22.5,0.875,-19.5625,-60.25,-25.5625,158.25,29.375,116.75,-0.57025146484375,0.60986328125,-0.5450439453125,0.10400390625,-62.0,-151.0,-65.0,481.0,-766.0,-377.0,4007,2520,1177,
44,2.858963966369629,0.06865096092224121,14.56643849650799,15.390190473744271,2.632109208793057e-38,322.0,-708.0,-517.0,-40.5,22.0625,3.1875,-8.0,-44.3125,-12.8125,155.5,28.8125,119.25,-0.5927734375,0.60247802734375,-0.52227783203125,0.1134033203125,-150.0,40.0,-97.0,473.0,-748.0,-420.0,4005,2578,1217,
45,2.925041913986206,0.06607794761657715,15.133641949695292,15.384394932883074,2.632109208793057e-38,363.0,-761.0,-462.0,-40.5,21.75,5.5,8.125,-34.875,-8.125,151.875,28.1875,120.25,-0.6104736328125,0.591064453125,-0.511474609375,0.1279296875,-100.0,-15.0,-26.0,464.0,-746.0,-435.0,4042,2620,1182,
46,2.9945809841156006,0.06953907012939453,14.380405118148031,15.36108064667529,2.632109208793057e-38,466.0,-953.0,-551.0,-42.0,20.6875,7.5,19.0,-23.4375,-28.1875,148.8125,28.3125,120.6875,-0.62908935546875,0.573486328125,-0.5054931640625,0.14080810546875,1.0,-210.0,-111.0,465.0,-742.0,-440.0,4010,2659,1193,
47,3.0618488788604736,0.06726789474487305,14.865932757264073,15.350202397151605,2.632109208793057e-38,595.0,-863.0,-438.0,-41.5625,19.5625,8.75,4.0,-8.5,-12.625,147.8125,29.3125,120.5,-0.64276123046875,0.55535888671875,-0.507080078125,0.14605712890625,115.0,-126.0,-3.0,480.0,-736.0,-434.0,4011,2692,1186,
48,3.135544776916504,0.07369589805603027,13.569276260663921,15.308344614744497,2.632109208793057e-38,475.0,-720.0,-435.0,-41.5625,20.0,10.25,-26.1875,-53.6875,65.9375,143.0,26.6875,121.625,-0.6474609375,0.56158447265625,-0.4886474609375,0.163330078125,34.0,24.0,25.0,440.0,-745.0,-460.0,3989,2712,1263,
49,3.2007787227630615,0.06523394584655762,15.329442164240472,15.308774596483481,2.632109208793057e-38,540.0,-905.0,-798.0,-41.1875,20.0,11.0625,-7.5,-29.5625,52.125,134.375,21.0,123.125,-0.6400146484375,0.5877685546875,-0.45623779296875,0.19171142578125,189.0,-138.0,-298.0,351.0,-766.0,-500.0,3959,2759,1335,
50,3.2714409828186035,0.07066226005554199,14.151825871603588,15.283784809995584,2.633472391939152e-38,801.0,-919.0,-442.0,-36.375,25.0625,14.6875,-19.125,-23.3125,57.375,129.1875,17.4375,123.4375,-0.62933349609375,0.60565185546875,-0.43988037109375,0.20892333984375,506.0,-138.0,72.0,294.0,-780.0,-515.0,3937,2791,1421,
51,3.33945894241333,0.06801795959472656,14.701999383079555,15.271935028835474,2.633472391939152e-38,639.0,-404.0,-491.0,-35.6875,27.0,16.6875,12.3125,-87.9375,40.125,119.0625,12.75,124.75,-0.6324462890625,0.6142578125,-0.4110107421875,0.2230224609375,437.0,310.0,30.0,230.0,-782.0,-543.0,3877,2796,1510,
52,3.405565023422241,0.06610608100891113,15.127201382051366,15.269125576038883,2.633472391939152e-38,501.0,-308.0,-391.0,-33.5625,28.5,19.0625,43.0625,-49.5,97.5,106.875,7.125,123.5,-0.6234130859375,0.6207275390625,-0.38189697265625,0.283203125,378.0,502.0,145.0,122.0,-811.0,-537.0,3827,2793,1619,
53,3.4766228199005127,0.07105779647827148,14.073051087445226,15.24467931828068,2.633472391939152e-38,-22.0,-57.0,-22.0,-26.875,33.375,21.0625,70.75,-36.6875,138.3125,93.375,-1.4375,119.125,-0.57269287109375,0.644775390625,-0.36834716796875,0.34722900390625,2.0,798.0,455.0,-25.0,-855.0,-478.0,3746,2766,1555,
54,3.5473387241363525,0.07071590423583984,14.141090477539075,15.222679365965265,2.633472391939152e-38,-39.0,-50.0,-22.0,-22.5625,36.6875,19.5,69.0,-36.6875,138.75,80.875,-10.9375,114.625,-0.5111083984375,0.66607666015625,-0.35247802734375,0.41339111328125,147.0,824.0,379.0,-186.0,-874.0,-401.0,3696,2777,1685,
55,3.6114308834075928,0.06409215927124023,15.60253253081965,15.229420630114436,2.6326831806440443e-38,-1343.0,-2467.0,-410.0,-10.5,44.1875,15.1875,103.0,-92.5625,209.3125,66.875,-22.8125,108.9375,-0.43353271484375,0.6796875,-0.32611083984375,0.49371337890625,-1464.0,-1767.0,477.0,-380.0,-854.0,-294.0,3633,2863,1602,
56,3.6796319484710693,0.06820106506347656,14.662527616970104,15.218913408790426,2.6326831806440443e-38,-1289.0,-906.0,-21.0,-3.5625,46.875,12.875,63.1875,-25.8125,60.9375,59.4375,-30.8125,105.8125,-0.3740234375,0.6910400390625,-0.30682373046875,0.53704833984375,-958.0,-548.0,171.0,-502.0,-809.0,-230.0,3570,2903,1597,
57,3.74590802192688,0.06627607345581055,15.088401407285364,15.216604269604952,2.6326831806440443e-38,-1039.0,-903.0,-193.0,2.6875,47.1875,8.875,-7.75,25.0625,-12.5625,61.875,-31.0625,103.5625,-0.35455322265625,0.68927001953125,-0.3250732421875,0.541748046875,-533.0,-87.0,4.0,-506.0,-816.0,-197.0,3551,2938,1374,
58,3.8120758533477783,0.06616783142089844,15.11308408520942,15.214807425477696,2.6326831806440443e-38,-1010.0,-866.0,-382.0,2.5625,48.1875,8.25,-10.75,48.3125,-6.8125,64.625,-29.75,106.125,-0.3564453125,0.7025146484375,-0.32940673828125,0.5205078125,-549.0,-95.0,-186.0,-486.0,-817.0,-236.0,3494,2966,1345,
59,3.8837430477142334,0.07166719436645508,13.953385629786357,15.19153025191105,2.6326831806440443e-38,-931.0,-1138.0,-307.0,1.5,48.25,9.75,-5.0625,39.8125,6.5625,67.625,-28.875,108.0,-0.35009765625,0.71630859375,-0.3359375,0.50146484375,-457.0,-322.0,-41.0,-473.0,-816.0,-266.0,3477,3009,1330,
60,3.9629530906677246,0.07921004295349121,12.624661756428509,15.140224632305829,2.6326831806440443e-38,-536.0,-1116.0,-98.0,1.0,47.875,8.5625,-31.125,52.5,52.625,68.375,-29.625,111.1875,-0.3348388671875,0.73822021484375,-0.3291015625,0.48431396484375,-51.0,-322.0,209.0,-490.0,-787.0,-317.0,3520,3019,1333,
61,4.038293838500977,0.07534074783325195,13.273029917532167,15.105389166689102,2.633615884901899e-38,-607.0,-942.0,-72.0,4.0,47.875,13.0,-79.75,71.5,90.4375,63.625,-33.125,120.1875,-0.30328369140625,0.78668212890625,-0.28363037109375,0.45684814453125,-71.0,-232.0,341.0,-536.0,-709.0,-413.0,3470,3054,1509,
62,4.105662107467651,0.0673682689666748,14.843783510226038,15.101096577633673,2.633615884901899e-38,-907.0,-843.0,76.0,7.0,46.875,17.0,-49.375,111.0625,35.8125,62.4375,-33.3125,129.875,-0.273193359375,0.8326416015625,-0.24981689453125,0.41192626953125,-319.0,-183.0,652.0,-538.0,-628.0,-525.0,3501,3098,1517,
63,4.175660848617554,0.06999874114990234,14.285971198517691,15.087432213480069,2.633615884901899e-38,-275.0,-525.0,2.0,9.875,43.1875,22.5625,-111.4375,134.25,-92.6875,69.25,-27.0625,136.8125,-0.28936767578125,0.86090087890625,-0.2379150390625,0.34423828125,170.0,71.0,639.0,-446.0,-597.0,-637.0,3519,3098,1620,
64,4.24770188331604,0.07204103469848633,13.880977753655324,15.066970742786054,2.633615884901899e-38,-3.0,9.0,-52.0,5.5625,42.875,26.5,-166.5,151.0,-183.125,312.4375,-10.6875,147.4375,-0.385498046875,0.875,-0.21356201171875,0.20037841796875,178.0,523.0,760.0,-182.0,-518.0,-812.0,3521,3200,1641,
65,4.313472747802734,0.06577086448669434,15.204300685485187,15.069064718934584,2.633615884901899e-38,299.0,-176.0,-336.0,-4.0625,38.5,31.5625,-111.25,-107.0625,-27.3125,305.9375,-8.8125,156.875,-0.44366455078125,0.87042236328125,-0.14111328125,0.16009521484375,449.0,204.0,554.0,-150.0,-380.0,-891.0,3581,3364,1418,
66,4.381225109100342,0.06775236129760742,14.759633182486786,15.064279592233211,2.63426160323426e-38,64.0,-189.0,-495.0,-10.6875,27.5,41.5625,-21.375,-34.3125,32.875,306.1875,-13.0625,161.4375,-0.44329833984375,0.87469482421875,-0.0885009765625,0.17462158203125,315.0,136.0,380.0,-222.0,-303.0,-905.0,3627,3472,1230,
67,4.449851989746094,0.06862688064575195,14.57154966961041,15.056680571486375,2.63426160323426e-38,247.0,-304.0,-632.0,-8.75,26.5,43.5625,-21.4375,21.375,60.4375,308.875,-14.5625,162.3125,-0.42279052734375,0.884521484375,-0.079345703125,0.1806640625,238.0,-29.0,155.0,-247.0,-287.0,-904.0,3650,3507,1113,
68,4.518630027770996,0.06877803802490234,14.539524951815748,15.04880894919026,2.63426160323426e-38,-173.0,-101.0,-951.0,-7.375,25.875,43.1875,36.0,48.625,-54.6875,309.25,-13.1875,162.0,-0.42034912109375,0.88671875,-0.08807373046875,0.17095947265625,61.0,217.0,-94.0,-224.0,-294.0,-908.0,3706,3447,1135,
69,4.590123891830444,0.07149386405944824,13.987214331687047,15.032273992169797,2.63426160323426e-38,-33.0,-52.0,-1205.0,-9.5,27.0,43.5625,60.375,132.5625,-50.25,305.9375,-2.9375,157.375,-0.44525146484375,0.8734130859375,-0.16241455078125,0.11212158203125,13.0,370.0,-341.0,-50.0,-376.0,-904.0,3730,3460,907,
70,4.658107042312622,0.06798315048217773,14.709527182947443,15.027563635645205,2.63426160323426e-38,124.0,-303.0,-1485.0,-15.5,28.5625,40.375,64.3125,89.4375,-54.5,303.5,4.5,153.625,-0.46051025390625,0.85711669921875,-0.219482421875,0.0718994140625,46.0,130.0,-609.0,77.0,-433.0,-876.0,3787,3405,944,
71,4.726871967315674,0.06876492500305176,14.54229754421488,15.02050414966495,2.63426160323426e-38,81.0,-382.0,-1378.0,-25.375,31.0625,34.375,11.1875,18.9375,-52.5,300.875,8.375,151.5625,-0.47662353515625,0.84136962890625,-0.2490234375,0.05426025390625,-62.0,78.0,-525.0,143.0,-461.0,-853.0,3689,3400,1133,
72,4.8009607791900635,0.07408881187438965,13.49731457018642,14.996998165885167,2.6323961947185505e-38,66.0,-266.0,-1358.0,-26.375,31.5,31.5625,-37.25,-38.75,-69.0,295.625,8.9375,154.5,-0.511962890625,0.82574462890625,-0.23162841796875,0.048583984375,-87.0,157.0,-487.0,153.0,-423.0,-870.0,3683,3406,1177,
73,4.8684937953948975,0.06753301620483398,14.807572002513645,14.994370552356585,2.6323961947185505e-38,252.0,-334.0,-1373.0,-29.0625,26.25,35.5625,-50.25,-71.4375,-80.9375,290.1875,8.0,157.3125,-0.55157470703125,0.807861328125,-0.20135498046875,0.051025390625,94.0,41.0,-438.0,136.0,-374.0,-896.0,3632,3460,1150,
74,4.9346489906311035,0.06615519523620605,15.115970808180917,14.996000757195898,2.6323961947185505e-38,406.0,-536.0,-1420.0,-28.6875,20.75,39.1875,-50.5625,-110.1875,-83.125,282.6875,3.75,162.0625,-0.61639404296875,0.77130126953125,-0.14208984375,0.0706787109375,360.0,-264.0,-489.0,64.0,-300.0,-931.0,3583,3490,1218,
75,5.006345987319946,0.07169699668884277,13.947585619797884,14.98098617034454,2.6323961947185505e-38,379.0,-614.0,-1110.0,-26.0625,18.25,42.375,-67.3125,-144.0,-71.0625,276.3125,-3.4375,166.1875,-0.66192626953125,0.73931884765625,-0.06884765625,0.10260009765625,445.0,-352.0,-91.0,-59.0,-233.0,-950.0,3476,3537,1266,
76,5.080619812011719,0.07427382469177246,13.463693355632095,14.958804793918853,2.6323961947185505e-38,415.0,-255.0,-771.0,-16.0625,11.6875,49.25,-23.125,-138.0625,-79.6875,268.875,-12.875,169.25,-0.69598388671875,0.70599365234375,-0.00140380859375,0.14434814453125,557.0,-79.0,161.0,-179.0,-181.0,-946.0,3456,3535,1275,
77,5.152854919433594,0.072235107421875,13.84368398817068,14.943172513862258,2.6332571524950317e-38,-41.0,-29.0,-57.0,-11.25,7.5625,51.25,47.1875,-127.0625,-13.875,265.9375,-21.0,166.25,-0.71435546875,0.66571044921875,0.056884765625,0.2081298828125,306.0,189.0,836.0,-351.0,-217.0,-889.0,3442,3516,1333,
78,5.231977939605713,0.07912302017211914,12.638546883380641,14.908319740713234,2.6332571524950317e-38,-54.0,-31.0,-50.0,-0.25,8.6875,52.5,41.125,-127.1875,-12.0625,264.375,-30.125,161.0625,-0.70623779296875,0.64044189453125,0.09637451171875,0.28594970703125,433.0,242.0,745.0,-492.0,-275.0,-802.0,3350,3462,1395,
79,5.313371896743774,0.08139395713806152,12.285924350671225,14.868148048965676,2.6332571524950317e-38,-134.0,-499.0,-322.0,6.0,10.5625,49.0,49.5,-86.8125,28.0,265.5,-37.6875,158.125,-0.68359375,0.6324462890625,0.1337890625,0.3388671875,464.0,-211.0,397.0,-599.0,-288.0,-720.0,3328,3428,1472,
80,5.383764028549194,0.07039213180541992,14.206133190627476,14.859492276365284,2.6332571524950317e-38,-273.0,-690.0,-638.0,13.375,15.5625,49.75,92.0625,5.0625,-84.125,333.875,-36.9375,147.4375,-0.6861572265625,0.60504150390625,0.09112548828125,0.3934326171875,284.0,-192.0,239.0,-589.0,-421.0,-660.0,3275,3395,1612,
81,5.458194971084595,0.07443094253540039,13.435272561870168,14.840070834608632,2.6332571524950317e-38,-1158.0,-780.0,-611.0,11.5,18.5625,47.75,-16.75,26.5625,-81.3125,344.0625,-33.1875,143.4375,-0.70269775390625,0.58502197265625,0.05609130859375,0.40106201171875,-620.0,-292.0,47.0,-537.0,-488.0,-659.0,3288,3343,1619,
82,5.526894807815552,0.06869983673095703,14.556075350167275,14.836540743283958,2.630961265091082e-38,-796.0,-732.0,-794.0,6.25,21.1875,47.0,-12.75,82.875,-96.75,254.5625,-26.4375,142.75,-0.73626708984375,0.5606689453125,0.01458740234375,0.3785400390625,-359.0,-202.0,-95.0,-437.0,-530.0,-699.0,3246,3342,1724,
83,5.597868919372559,0.07097411155700684,14.089644492369501,14.827071014964588,2.630961265091082e-38,-803.0,-821.0,-901.0,1.875,22.375,48.0,30.6875,40.5,-30.3125,251.125,-20.4375,141.75,-0.75775146484375,0.54229736328125,-0.0284423828125,0.36187744140625,-500.0,-242.0,-127.0,-342.0,-568.0,-722.0,3174,3384,1862,
84,5.665164947509766,0.06729602813720703,14.859717990505208,14.827458825700008,2.630961265091082e-38,-845.0,-666.0,-719.0,-2.5,22.375,46.5,7.625,25.3125,-0.6875,251.4375,-18.8125,140.875,-0.75579833984375,0.54400634765625,-0.0462646484375,0.36151123046875,-528.0,-81.0,1.0,-317.0,-585.0,-720.0,3130,3424,1856,
85,5.732583045959473,0.06741809844970703,14.832812301076485,14.827521785299039,2.630961265091082e-38,-635.0,-746.0,-856.0,-3.6875,23.5625,46.875,5.25,16.125,57.6875,254.75,-19.0625,141.4375,-0.74102783203125,0.566162109375,-0.05242919921875,0.357177734375,-330.0,-168.0,-150.0,-320.0,-577.0,-725.0,3160,3454,1746,
86,5.799966096878052,0.0673830509185791,14.840527200353826,14.827672880069287,2.630961265091082e-38,-780.0,-755.0,-818.0,-4.6875,24.5625,47.25,-5.4375,-3.875,98.8125,260.0,-22.375,143.1875,-0.714599609375,0.59967041015625,-0.03411865234375,0.358642578125,-406.0,-212.0,-92.0,-374.0,-542.0,-726.0,3191,3488,1587,
87,5.872102975845337,0.07213687896728516,13.862534868655887,14.815816472883915,2.630961265091082e-38,-607.0,-872.0,-900.0,-0.25,24.5625,46.875,-25.0,7.0625,128.125,267.1875,-26.6875,147.375,-0.67779541015625,0.64569091796875,-0.003662109375,0.3516845703125,-166.0,-400.0,-161.0,-440.0,-472.0,-738.0,3164,3562,1514,
88,5.938591718673706,0.06648874282836914,15.040139991537396,14.818328009195664,2.6331854060136583e-38,-492.0,-698.0,-955.0,2.25,25.0,47.6875,-62.1875,-26.0625,149.375,275.375,-32.1875,155.5,-0.63311767578125,0.69580078125,0.05291748046875,0.33502197265625,30.0,-331.0,-188.0,-522.0,-343.0,-755.0,3074,3677,1532,
89,6.007443904876709,0.06885218620300293,14.523867071578707,14.81495314966683,2.6331854060136583e-38,-441.0,-656.0,-571.0,6.25,22.0,48.875,-35.6875,20.1875,123.625,283.1875,-36.1875,164.5,-0.58544921875,0.7388916015625,0.105224609375,0.316650390625,138.0,-445.0,191.0,-579.0,-211.0,-762.0,2918,3784,1643,
90,6.0738561153411865,0.06641221046447754,15.057472007122522,14.817604877514363,2.6331854060136583e-38,-274.0,-618.0,-415.0,14.0,15.0625,50.5,-70.5625,72.8125,85.25,288.75,-34.25,172.5,-0.55548095703125,0.77532958984375,0.12603759765625,0.272705078125,277.0,-512.0,387.0,-552.0,-105.0,-803.0,2900,3824,1548,
91,6.139179706573486,0.0653235912322998,15.308405143309718,14.822827209726789,2.6331854060136583e-38,-35.0,-281.0,-253.0,11.375,12.25,51.6875,-94.25,126.5,51.625,291.5,-27.3125,-178.625,-0.54644775390625,0.8033447265625,0.14178466796875,0.1895751953125,414.0,-301.0,617.0,-450.0,20.0,-870.0,3036,3937,1508,
92,6.207867860794067,0.06868815422058105,14.55855105363087,14.819903075100571,2.6331854060136583e-38,-20.0,16.0,-63.0,8.375,7.875,52.875,-101.875,156.75,2.6875,290.5625,-17.0625,-171.8125,-0.561767578125,0.8109130859375,0.14105224609375,0.0833740234375,267.0,-115.0,864.0,-287.0,132.0,-928.0,3097,4010,1337,
93,6.274052858352661,0.06618499755859375,15.109164265129683,14.822954492037612,2.6320374623116834e-38,-13.0,27.0,-63.0,-4.1875,-1.5,53.6875,-107.75,156.9375,1.5625,289.125,-8.0625,-166.0625,-0.57403564453125,0.806884765625,0.13909912109375,-0.011474609375,125.0,-205.0,878.0,-138.0,233.0,-942.0,3183,4048,1258,
94,6.342761993408203,0.06870913505554199,14.554105494002158,14.820042135853546,2.6320374623116834e-38,806.0,-79.0,-1495.0,-12.75,-7.6875,51.875,-117.875,25.3125,-23.3125,285.0625,-4.6875,-160.5,-0.5966796875,0.78277587890625,0.16094970703125,-0.0726318359375,596.0,267.0,-170.0,-76.0,332.0,-919.0,3197,4134,1287,
95,6.41155481338501,0.06879281997680664,14.536400751374169,14.816998803733897,2.6320374623116834e-38,63.0,445.0,-685.0,-12.6875,-11.75,49.875,26.5,22.25,38.6875,289.25,-3.0625,-159.625,-0.5694580078125,0.80242919921875,0.159423828125,-0.07977294921875,116.0,105.0,233.0,-52.0,339.0,-918.0,3235,4149,1211,
96,6.4799158573150635,0.06836104393005371,14.62821429443338,14.815007187420077,2.6320374623116834e-38,-28.0,569.0,-986.0,-14.6875,-11.0,49.75,112.125,43.125,66.9375,291.875,-0.375,-164.375,-0.5546875,0.8209228515625,0.11431884765625,-0.07275390625,-20.0,306.0,-41.0,-7.0,263.0,-944.0,3270,4138,1204,
97,6.548604965209961,0.06868910789489746,14.558348923822383,14.81231506791462,2.6320374623116834e-38,267.0,327.0,-1240.0,-16.5,-6.1875,51.0625,87.75,117.5,46.75,294.8125,5.5625,-170.6875,-0.53448486328125,0.83984375,0.03057861328125,-0.08978271484375,151.0,182.0,-285.0,115.0,144.0,-963.0,3282,4153,1148,
98,6.616987943649292,0.06838297843933105,14.623522151600836,14.81036399560865,2.6320374623116834e-38,172.0,619.0,-1373.0,-24.875,3.0625,47.0625,-18.6875,42.8125,-46.1875,293.8125,12.0,-172.0,-0.54168701171875,0.83306884765625,0.000244140625,-0.125244140625,5.0,424.0,-384.0,198.0,128.0,-951.0,3279,4193,1098,
99,6.689341068267822,0.07235312461853027,13.821103169660363,14.799663971332777,2.631606983423443e-38,198.0,598.0,-1419.0,-28.0,0.875,46.25,-7.6875,35.125,-67.6875,290.375,13.4375,-170.3125,-0.5648193359375,0.8126220703125,0.00018310546875,-0.1436767578125,-58.0,468.0,-455.0,228.0,159.0,-940.0,3274,4197,1176,
100,6.762824058532715,0.07348299026489258,13.608591544725998,14.786722105217141,2.631606983423443e-38,373.0,377.0,-1544.0,-29.0,-0.5625,46.25,-17.9375,-31.25,-101.375,283.875,12.125,-168.0,-0.60968017578125,0.77874755859375,0.01519775390625,-0.147216796875,166.0,177.0,-606.0,206.0,199.0,-937.0,3267,4189,1240,
101,6.8294360637664795,0.06661200523376465,15.012308914746717,14.788922402517937,2.631606983423443e-38,456.0,250.0,-1194.0,-27.0625,-5.5,47.0,-55.0,-52.0,-151.1875,276.125,7.0,-163.9375,-0.6605224609375,0.73529052734375,0.06170654296875,-0.1385498046875,336.0,-18.0,-259.0,119.0,268.0,-935.0,3283,4174,1355,
102,6.898019790649414,0.06858372688293457,14.580718276026294,14.786852328006617,2.631606983423443e-38,674.0,283.0,-1401.0,-24.875,-9.875,48.1875,22.5625,-63.375,-109.5625,268.375,1.5625,-161.6875,-0.70782470703125,0.68817138671875,0.10052490234375,-0.12359619140625,662.0,-20.0,-469.0,12.0,304.0,-932.0,3271,4153,1429,
103,6.965308904647827,0.06728911399841309,14.861244866793513,14.787571005109324,2.631606983423443e-38,262.0,-72.0,-503.0,-20.5,-15.0625,49.375,79.625,-29.875,-93.1875,263.375,-3.875,-164.875,-0.7396240234375,0.65924072265625,0.11273193359375,-0.07501220703125,329.0,-326.0,441.0,-66.0,254.0,-944.0,3218,4089,1463,
104,7.035522937774658,0.07021403312683105,14.2421672060007,14.782127912853523,2.6305307862028413e-38,-38.0,3.0,-54.0,-14.5625,-13.5625,51.0,113.75,-17.25,-77.125,258.5625,-6.125,-172.875,-0.771240234375,0.63134765625,0.0804443359375,-0.013671875,66.0,-117.0,912.0,-104.0,120.0,-967.0,3112,4020,1487,
105,7.10608172416687,0.07055878639221191,14.172579364408927,14.776075490788195,2.6305307862028413e-38,-44.0,-6.0,-58.0,-13.75,-8.6875,52.1875,106.5,-17.75,-76.625,253.5625,-7.6875,179.0,-0.79559326171875,0.6021728515625,0.047607421875,0.04681396484375,88.0,9.0,911.0,-129.0,-16.0,-971.0,3024,3965,1587,
106,7.175278902053833,0.06919717788696289,14.451456411033856,14.772944919208484,2.6305307862028413e-38,-45.0,-18.0,-55.0,-11.1875,-0.1875,53.0,101.125,-17.875,-75.9375,250.0,-8.3125,171.1875,-0.81451416015625,0.57049560546875,0.01629638671875,0.10400390625,97.0,128.0,903.0,-142.0,-147.0,-958.0,3008,3954,1555,
107,7.241724014282227,0.06644511222839355,15.05001596750523,14.7754871338611,2.6305307862028413e-38,-256.0,-766.0,-1090.0,-10.5,4.5625,53.75,67.0,-120.5625,-15.1875,247.75,-14.8125,163.875,-0.81524658203125,0.54754638671875,0.03204345703125,0.185791015625,-5.0,-504.0,-179.0,-250.0,-262.0,-910.0,2952,3926,1577,
108,7.309731960296631,0.0680079460144043,14.704164125000876,14.774823562151154,2.6305307862028413e-38,-417.0,-672.0,-843.0,-6.0625,9.375,54.1875,49.5,-21.25,-3.75,246.375,-18.25,160.125,-0.8140869140625,0.53271484375,0.0445556640625,0.226806640625,-109.0,-357.0,32.0,-308.0,-315.0,-875.0,2916,3873,1504,
109,7.37756085395813,0.06782889366149902,14.742979665723475,14.774530791097506,2.6305307862028413e-38,-450.0,-668.0,-1073.0,-2.25,12.75,54.1875,20.4375,109.75,-65.875,245.1875,-13.875,158.125,-0.8212890625,0.52532958984375,0.00372314453125,0.2225341796875,-215.0,-313.0,-190.0,-235.0,-354.0,-883.0,2945,3843,1505,
110,7.4456799030303955,0.06811904907226562,14.680181441451532,14.773667607605578,2.6313917439793225e-38,-379.0,-546.0,-1596.0,-8.5,12.375,53.375,36.5625,55.3125,-38.75,244.5625,-7.6875,156.25,-0.82537841796875,0.52197265625,-0.05072021484375,0.209228515625,-247.0,-156.0,-706.0,-132.0,-390.0,-889.0,3039,3855,1548,
111,7.5122129917144775,0.06653308868408203,15.030115387371891,14.775938877455468,2.6313917439793225e-38,-517.0,-654.0,-1507.0,-14.0625,13.5,52.1875,20.75,-4.75,21.4375,245.0625,-6.6875,154.3125,-0.820556640625,0.523681640625,-0.06793212890625,0.2186279296875,-401.0,-233.0,-629.0,-115.0,-421.0,-877.0,3002,3914,1837,
112,7.577388763427734,0.06517577171325684,15.343124810236787,14.780817442094033,2.6313917439793225e-38,-111.0,-554.0,-963.0,-14.5,16.25,51.6875,-30.875,-43.9375,85.9375,248.5,-9.625,154.9375,-0.80413818359375,0.54766845703125,-0.04931640625,0.22576904296875,53.0,-145.0,-87.0,-164.0,-409.0,-875.0,3037,3898,1710,
113,7.646575927734375,0.06918716430664062,14.453547995809672,14.777856267685173,2.6313917439793225e-38,-215.0,-389.0,-679.0,-12.25,18.0625,52.1875,-82.9375,-69.1875,107.25,254.125,-16.5,160.25,-0.77813720703125,0.58795166015625,0.01629638671875,0.22021484375,96.0,-110.0,162.0,-262.0,-334.0,-883.0,3059,3906,1647,
114,7.712378978729248,0.06580305099487305,15.196863745389459,14.781431295636814,2.6313917439793225e-38,-174.0,-263.0,-717.0,-7.5,15.0625,54.1875,-87.375,-34.375,65.1875,257.625,-20.8125,167.0,-0.7615966796875,0.6126708984375,0.07440185546875,0.19769287109375,174.0,-57.0,175.0,-348.0,-205.0,-893.0,3096,3931,1632,
115,7.779442071914673,0.0670630931854248,14.911331292683881,14.782551105454308,2.6313917439793225e-38,-51.0,-202.0,-572.0,0.0,5.875,55.375,-40.0625,-6.875,34.125,259.6875,-22.25,172.3125,-0.7515869140625,0.62744140625,0.1082763671875,0.1722412109375,320.0,-81.0,326.0,-371.0,-120.0,-899.0,3139,3963,1661,
116,7.844465017318726,0.06502294540405273,15.37918643620337,14.78749662901159,2.632970166569538e-38,-110.0,-262.0,-478.0,0.375,3.25,57.0625,8.5,-1.5,10.0,260.875,-22.5,173.1875,-0.7451171875,0.6351318359375,0.1126708984375,0.16949462890625,265.0,-155.0,421.0,-375.0,-107.0,-899.0,3032,3943,1557,
117,7.9134838581085205,0.06901884078979492,14.488797385711226,14.784891471044881,2.632970166569538e-38,-225.0,-344.0,-613.0,1.0,4.0625,56.25,28.125,-4.6875,8.4375,261.5625,-22.8125,172.0625,-0.74041748046875,0.6387939453125,0.1080322265625,0.17889404296875,155.0,-220.0,281.0,-381.0,-124.0,-894.0,2989,3983,1603,
118,7.981098890304565,0.06761503219604492,14.789610646055332,14.7849314514003,2.632970166569538e-38,-376.0,-375.0,-905.0,0.6875,7.375,54.6875,72.75,-8.75,38.9375,264.1875,-23.1875,169.0,-0.7236328125,0.65380859375,0.09014892578125,0.20196533203125,10.0,-204.0,-21.0,-386.0,-171.0,-884.0,2914,4019,1669,
119,8.047593116760254,0.06649422645568848,15.038899665467897,14.787029894958982,2.632970166569538e-38,-633.0,-311.0,-1061.0,2.1875,9.1875,54.25,26.625,-20.8125,65.375,270.3125,-25.375,166.625,-0.68341064453125,0.6873779296875,0.0797119140625,0.2325439453125,-213.0,-106.0,-199.0,-420.0,-204.0,-862.0,2946,4030,1610,
120,8.119529008865356,0.07193589210510254,13.901266401742006,14.77918237239836,2.632970166569538e-38,-515.0,-178.0,-872.0,5.5,13.5625,54.25,-25.125,7.8125,120.625,277.3125,-27.1875,170.125,-0.6395263671875,0.72747802734375,0.09698486328125,0.2288818359375,-66.0,-29.0,-12.0,-448.0,-148.0,-859.0,2778,4042,1677,
121,8.19077205657959,0.0712430477142334,14.036457339825645,14.772722176147186,2.6320374623116834e-38,-308.0,-16.0,-753.0,5.875,11.5625,53.0625,-89.75,34.4375,144.3125,285.3125,-26.5625,179.0625,-0.590087890625,0.77386474609375,0.13372802734375,0.18719482421875,130.0,-2.0,123.0,-438.0,-13.0,-876.0,2801,4086,1777,
122,8.262840986251831,0.07206892967224121,13.875604987445373,14.764897473277085,2.6320374623116834e-38,-125.0,139.0,-472.0,5.875,7.875,55.5,-196.5,45.9375,141.1875,292.75,-23.0625,-166.5,-0.5386962890625,0.81060791015625,0.20318603515625,0.107177734375,259.0,-70.0,404.0,-385.0,209.0,-877.0,2991,4128,1652,
123,8.331690788269043,0.06884980201721191,14.524370015617587,14.762909849364917,2.6320374623116834e-38,32.0,287.0,-179.0,2.875,-7.25,53.875,-321.5,139.6875,206.3125,300.25,-12.8125,-145.5,-0.47296142578125,0.823486328125,0.31036376953125,-0.0430908203125,251.0,-253.0,608.0,-218.0,541.0,-788.0,3161,4138,1604,
124,8.398274898529053,0.06658411026000977,15.018598222534141,14.764937025545382,2.6320374623116834e-38,60.0,380.0,-509.0,-3.375,-22.5,50.25,-119.0,47.875,43.75,147.3125,-9.8125,-133.375,-0.454833984375,0.79486083984375,0.385498046875,-0.11285400390625,228.0,-321.0,154.0,-167.0,701.0,-664.0,3346,4120,1633,
125,8.465025901794434,0.06675100326538086,14.981048240193733,14.766641171588411,2.6320374623116834e-38,219.0,795.0,-692.0,-4.5,-28.375,46.375,64.5625,109.5625,111.0,130.1875,-2.6875,-132.875,-0.4381103515625,0.80499267578125,0.3629150390625,-0.1683349609375,242.0,45.0,-50.0,-46.0,717.0,-666.0,3308,4124,1463,
126,8.533974885940552,0.06894898414611816,14.503476916799508,14.764514975030092,2.6320374623116834e-38,57.0,733.0,-756.0,-16.0,-27.5625,43.5625,65.5,95.25,90.9375,307.3125,7.8125,-138.9375,-0.41455078125,0.8377685546875,0.27923583984375,-0.21978759765625,-77.0,96.0,-23.0,134.0,637.0,-732.0,3274,4213,1283,
127,8.598251819610596,0.06427693367004395,15.557680537988182,14.770444348971356,2.631463490460696e-38,128.0,686.0,-768.0,-23.25,-23.5625,43.5625,39.3125,69.3125,78.625,310.875,15.8125,-142.1875,-0.3895263671875,0.853515625,0.2254638671875,-0.2626953125,-139.0,108.0,-23.0,267.0,578.0,-745.0,3197,4347,1012,
128,8.66425895690918,0.06600713729858398,15.149876830387136,14.773334988784976,2.631463490460696e-38,199.0,722.0,-709.0,-27.375,-19.1875,42.375,-7.5625,26.125,14.5,312.125,19.4375,-142.9375,-0.3797607421875,0.8555908203125,0.20489501953125,-0.28594970703125,-127.0,165.0,28.0,327.0,556.0,-737.0,3195,4250,1181,
129,8.730931997299194,0.06667304039001465,14.998566049340775,14.77505494715851,2.631463490460696e-38,304.0,733.0,-916.0,-30.6875,-17.375,41.5625,11.4375,-11.125,9.625,312.8125,19.5625,-143.0625,-0.3743896484375,0.85809326171875,0.20526123046875,-0.28521728515625,-25.0,178.0,-178.0,329.0,554.0,-738.0,3199,4161,1323,
130,8.813023805618286,0.0820918083190918,12.18148339616285,14.750896272074659,2.631463490460696e-38,278.0,621.0,-776.0,-31.5,-15.75,42.375,-30.75,-1.4375,-15.6875,312.625,18.875,-142.5625,-0.37591552734375,0.8570556640625,0.211669921875,-0.28167724609375,-38.0,58.0,-39.0,317.0,563.0,-737.0,3204,4094,1389,
131,8.881909132003784,0.06888532638549805,14.51687975467767,14.749081312707151,2.631463490460696e-38,330.0,612.0,-753.0,-29.5625,-17.25,41.875,-4.0625,-18.0,-17.25,311.75,17.5625,-141.0,-0.38116455078125,0.85162353515625,0.22723388671875,-0.2789306640625,34.0,24.0,-26.0,296.0,588.0,-726.0,3266,4084,1475,
132,8.954345941543579,0.07243680953979492,13.805135901942585,14.74144520009972,2.631678729904816e-38,337.0,377.0,-847.0,-30.0,-18.75,42.25,46.8125,14.875,-27.875,310.3125,16.5625,-142.0625,-0.3935546875,0.8504638671875,0.2208251953125,-0.27032470703125,56.0,-199.0,-106.0,280.0,576.0,-741.0,3342,4098,1566,
133,9.023859024047852,0.06951308250427246,14.385781265541452,14.738705430300474,2.631678729904816e-38,169.0,361.0,-652.0,-29.5625,-17.5625,42.6875,26.1875,-5.6875,-12.625,308.5,17.0625,-143.75,-0.40869140625,0.84771728515625,0.20263671875,-0.270751953125,-118.0,-192.0,103.0,287.0,553.0,-756.0,3197,4055,1462,
134,9.087284088134766,0.06342506408691406,15.766637596607826,14.745879924119828,2.631678729904816e-38,131.0,402.0,-814.0,-28.5,-16.1875,43.875,190.6875,-26.1875,37.875,309.4375,16.5625,-151.3125,-0.40948486328125,0.86761474609375,0.1531982421875,-0.23699951171875,-148.0,-48.0,9.0,280.0,450.0,-824.0,3124,4043,1548,
135,9.161542892456055,0.07425880432128906,13.466416664526237,14.735509246064206,2.631678729904816e-38,365.0,-97.0,-860.0,-28.875,-11.375,44.25,278.25,-38.8125,105.3125,311.875,15.5,-170.25,-0.40234375,0.90167236328125,0.02032470703125,-0.15728759765625,103.0,-257.0,71.0,262.0,160.0,-931.0,3099,4023,1622,
136,9.231414794921875,0.06987190246582031,14.311904566920536,14.732303013272947,2.631678729904816e-38,-13.0,-248.0,-614.0,-25.1875,13.6875,47.5625,203.625,-1.25,138.5625,319.0625,13.8125,171.1875,-0.34588623046875,0.92742919921875,-0.112548828125,-0.0872802734375,-227.0,-93.0,283.0,235.0,-145.0,-940.0,3120,4040,1596,
137,9.297119140625,0.065704345703125,15.219693450998607,14.73574748562275,2.631678729904816e-38,212.0,-379.0,-733.0,-23.0625,25.0625,43.6875,79.1875,-27.125,22.75,323.625,12.3125,159.8125,-0.30548095703125,0.93017578125,-0.19732666015625,-0.05010986328125,3.0,-49.0,165.0,209.0,-330.0,-899.0,3094,4083,1626,
138,9.364927053451538,0.06780791282653809,14.747541375563893,14.735832880741842,2.6308895186097085e-38,185.0,-413.0,-712.0,-21.5625,33.5625,38.5,48.75,48.875,-8.5625,323.1875,13.4375,155.875,-0.306640625,0.92181396484375,-0.2318115234375,-0.0494384765625,-42.0,-24.0,157.0,228.0,-389.0,-870.0,3067,4107,1658,
139,9.432547807693481,0.06762075424194336,14.788359154085366,14.736209435018951,2.6308895186097085e-38,208.0,-453.0,-772.0,-22.25,37.25,35.75,-5.6875,141.8125,-36.0625,323.0625,18.875,155.0,-0.3046875,0.911865234375,-0.2529296875,-0.10821533203125,-90.0,-128.0,36.0,344.0,-387.0,-832.0,3055,4069,1700,
140,9.49893307685852,0.06638526916503906,15.063582818560551,14.738497351988997,2.6308895186097085e-38,598.0,-570.0,-670.0,-27.5,36.5625,32.1875,-67.5,98.8125,-50.9375,322.125,32.8125,157.1875,-0.305419921875,0.89111328125,-0.2567138671875,-0.21612548828125,66.0,-250.0,89.0,531.0,-319.0,-759.0,3048,4104,1747,
141,9.566895961761475,0.0679628849029541,14.713913357679342,14.73832270817742,2.6308895186097085e-38,634.0,-254.0,-892.0,-33.0625,34.0,28.5625,-9.0625,56.5625,15.625,322.3125,36.0625,158.5,-0.3018798828125,0.885986328125,-0.251220703125,-0.24664306640625,57.0,36.0,-154.0,577.0,-290.0,-737.0,3054,4069,1766,
142,9.630552768707275,0.06365680694580078,15.709239089724191,14.744740349837768,2.6308895186097085e-38,522.0,-298.0,-486.0,-37.5625,30.6875,25.875,64.9375,49.5625,38.25,323.75,38.375,154.625,-0.28704833984375,0.87841796875,-0.2769775390625,-0.26312255859375,-87.0,30.0,208.0,609.0,-329.0,-694.0,3046,4016,1871,
143,9.69850778579712,0.06795501708984375,14.715616930504098,14.744536289326375,2.63196571583031e-38,609.0,-234.0,-644.0,-37.1875,34.375,23.5,107.9375,-10.1875,159.375,250.25,35.3125,144.125,-0.24090576171875,0.87890625,-0.33673095703125,-0.2369384765625,-19.0,328.0,-95.0,567.0,-468.0,-648.0,3077,3922,1716,
144,9.76546597480774,0.06695818901062012,14.934693049141336,14.74584012391022,2.63196571583031e-38,346.0,-648.0,-411.0,-34.25,38.5,20.6875,203.1875,-45.875,197.0,223.5625,26.875,130.25,-0.18231201171875,0.8690185546875,-0.4271240234375,-0.17083740234375,-97.0,18.0,154.0,416.0,-700.0,-545.0,3126,3842,1626,
145,9.833544969558716,0.06807899475097656,14.688818535847364,14.745445355552885,2.63196571583031e-38,15.0,-799.0,-321.0,-19.75,51.875,8.6875,149.25,-30.6875,167.8125,201.0,16.5625,118.25,-0.12158203125,0.84393310546875,-0.51373291015625,-0.09527587890625,-264.0,27.0,123.0,280.0,-827.0,-445.0,3270,3828,1641,
146,9.898597955703735,0.06505298614501953,15.37208450002199,14.749563590050892,2.63196571583031e-38,12.0,-921.0,-543.0,-12.1875,54.75,3.5,85.6875,-31.4375,133.25,184.625,5.375,109.1875,-0.04876708984375,0.81317138671875,-0.57952880859375,-0.0234375,-61.0,-20.0,-275.0,92.0,-922.0,-320.0,3365,3809,1654,
147,9.964707851409912,0.06610989570617676,15.126328506771012,14.752063200648767,2.63196571583031e-38,-144.0,-948.0,-124.0,-5.0625,55.1875,-2.0625,46.25,-74.3125,72.5625,173.125,-1.1875,105.5625,-0.02996826171875,0.79595947265625,-0.603515625,0.03619384765625,-123.0,-4.0,138.0,-20.0,-944.0,-263.0,3357,3915,1730,
148,10.031067848205566,0.0663599967956543,15.069319594444085,14.754161993478627,2.63196571583031e-38,-251.0,-929.0,-90.0,4.0625,55.875,-7.25,17.0625,-26.625,2.0625,167.75,-3.6875,103.75,-0.03143310546875,0.78619384765625,-0.61370849609375,0.065673828125,-188.0,20.0,143.0,-63.0,-950.0,-233.0,3276,4059,1918,
149,10.097569942474365,0.06650209426879883,15.03712042447926,14.756025543655527,2.631463490460696e-38,-73.0,-979.0,-224.0,3.0,55.5625,-8.375,16.5,-7.375,-8.5,167.6875,-2.9375,103.1875,-0.042236328125,0.7825927734375,-0.6175537109375,0.0662841796875,-22.0,-20.0,0.0,-50.0,-953.0,-224.0,3231,4178,2011,
150,10.166620016098022,0.06905007362365723,14.482243790937687,14.75416606133475,2.631463490460696e-38,-78.0,-993.0,-179.0,2.5625,55.5625,-8.75,11.125,-8.4375,-4.25,167.3125,-2.875,102.25,-0.04583740234375,0.777099609375,-0.6239013671875,0.06915283203125,-29.0,-36.0,28.0,-49.0,-957.0,-207.0,3267,4233,1871,
151,10.231181859970093,0.06456184387207031,15.48902478655204,14.758803241568163,2.631463490460696e-38,-100.0,-967.0,-210.0,2.5625,55.0625,-8.875,-0.5,-7.1875,-14.875,167.375,-2.375,102.0,-0.0518798828125,0.775634765625,-0.625244140625,0.06903076171875,-59.0,-9.0,-5.0,-41.0,-958.0,-204.0,3317,4185,1992,
152,10.296843767166138,0.06566190719604492,15.2295302208376,14.761805018804605,2.631463490460696e-38,-70.0,-972.0,-211.0,1.0625,55.0625,-8.875,-2.1875,-12.875,-11.5,167.125,-1.8125,102.0,-0.061767578125,0.77496337890625,-0.62506103515625,0.07037353515625,-36.0,-16.0,1.0,-31.0,-958.0,-204.0,3370,4144,2017,
153,10.367903709411621,0.0710599422454834,14.072626129435962,14.757081497690988,2.631463490460696e-38,-48.0,-994.0,-189.0,1.0625,54.6875,-8.875,-10.4375,-14.3125,-9.3125,166.5625,-1.5,102.3125,-0.06976318359375,0.7760009765625,-0.62261962890625,0.07305908203125,-22.0,-36.0,19.0,-26.0,-957.0,-209.0,3370,4126,2111,
154,10.433872938156128,0.06596922874450684,15.158582554798604,14.759620029186866,2.631463490460696e-38,-38.0,-951.0,-173.0,-0.25,55.0625,-9.25,-13.125,-11.75,-8.4375,166.375,-1.1875,103.0,-0.07586669921875,0.7786865234375,-0.61859130859375,0.07373046875,-19.0,-1.0,44.0,-21.0,-955.0,-219.0,3381,4068,2190,
155,10.50481390953064,0.07094097137451172,14.096226491187977,14.755140008655848,2.6318939693489365e-38,-30.0,-970.0,-170.0,-1.75,55.75,-7.25,-11.5625,-7.375,-4.625,166.0625,-0.9375,103.4375,-0.08099365234375,0.78082275390625,-0.61492919921875,0.074951171875,-13.0,-16.0,65.0,-17.0,-953.0,-228.0,3375,4052,2238,
156,10.586931943893433,0.08211803436279297,12.17759299476233,14.7351471443038,2.6318939693489365e-38,-14.0,-985.0,-164.0,-1.0625,55.5,-5.6875,-10.0,-2.625,-4.375,166.625,-0.75,103.625,-0.0802001953125,0.78204345703125,-0.6138916015625,0.07196044921875,1.0,-33.0,56.0,-13.0,-952.0,-231.0,3367,4018,2314,
157,10.660258769989014,0.07332682609558105,13.637573767293654,14.727597461516575,2.6318939693489365e-38,-18.0,-938.0,-186.0,-0.6875,56.1875,-6.0625,-11.0625,1.375,-4.9375,167.25,-0.5,104.0,-0.079833984375,0.783935546875,-0.61187744140625,0.068115234375,-20.0,22.0,51.0,-8.0,-951.0,-237.0,3343,4050,2292,
158,10.73126482963562,0.07100605964660645,14.083305072509997,14.723334342067941,2.6318939693489365e-38,-30.0,-896.0,-204.0,-1.875,56.5625,-4.0625,-5.6875,0.375,-4.4375,168.125,-0.25,104.5,-0.07818603515625,0.78680419921875,-0.60888671875,0.06329345703125,-25.0,53.0,41.0,-4.0,-949.0,-245.0,3339,4026,2332,
159,10.795742988586426,0.06447815895080566,15.50912768404199,14.728027535307152,2.6318939693489365e-38,-27.0,-920.0,-197.0,-1.875,56.5625,-3.6875,0.0625,-1.8125,-2.75,168.375,-0.125,104.4375,-0.07794189453125,0.78656005859375,-0.60943603515625,0.06182861328125,-17.0,32.0,52.0,-2.0,-949.0,-244.0,3325,4047,2314,
160,10.865947008132935,0.07020401954650879,14.244198643605008,14.724901555312513,2.6331854060136583e-38,-32.0,-930.0,-202.0,-2.25,56.5625,-4.5,3.8125,-6.875,-8.6875,168.3125,0.0,104.0625,-0.079833984375,0.7843017578125,-0.612060546875,0.06256103515625,-32.0,20.0,35.0,0.0,-951.0,-238.0,3360,4026,2317,
161,10.935548067092896,0.06960105895996094,14.367597489792004,14.72262743597452,2.6331854060136583e-38,-2.0,-922.0,-185.0,-3.375,56.5625,-4.875,0.3125,-16.5625,-9.625,167.75,0.1875,103.75,-0.0855712890625,0.78228759765625,-0.61358642578125,0.0648193359375,-17.0,19.0,35.0,3.0,-952.0,-234.0,3359,4071,2203,
162,11.007396936416626,0.07184886932373047,13.918103505488526,14.717376045924428,2.6331854060136583e-38,41.0,-950.0,-194.0,-2.6875,55.75,-4.5,3.3125,-19.0,-3.6875,166.5625,0.3125,103.625,-0.0965576171875,0.78021240234375,-0.61376953125,0.072265625,38.0,0.0,37.0,5.0,-952.0,-231.0,3292,4089,2099,
163,11.07797384262085,0.07057690620422363,14.168940717043723,14.713882007274819,2.6331854060136583e-38,18.0,-939.0,-183.0,-4.1875,56.5625,-5.6875,9.5,-15.875,3.0625,165.5625,0.1875,102.875,-0.1005859375,0.77545166015625,-0.618408203125,0.0780029296875,15.0,1.0,28.0,3.0,-955.0,-218.0,3187,4110,2070,
164,11.14721393585205,0.06924009323120117,14.442499328544766,14.712196333878332,2.6331854060136583e-38,25.0,-994.0,-201.0,-4.1875,56.5625,-4.875,9.25,-9.75,1.375,164.5625,0.0,102.1875,-0.10357666015625,0.7713623046875,-0.6221923828125,0.084228515625,43.0,-34.0,3.0,-1.0,-958.0,-207.0,3075,4186,1991,
165,11.21892786026001,0.07171392440795898,13.944293360816516,14.707287724388305,2.6328984200881646e-38,-229.0,-901.0,-46.0,-3.0,55.5,-4.875,44.125,-1.0625,33.5,163.6875,-1.125,100.875,-0.09356689453125,0.765380859375,-0.63031005859375,0.090087890625,-209.0,61.0,138.0,-19.0,-962.0,-185.0,2910,4207,2018,
166,11.284536838531494,0.06560897827148438,15.241816384673527,14.710395506281346,2.6328984200881646e-38,-4.0,-849.0,-17.0,-1.875,55.5,-9.25,134.4375,-22.0,33.125,160.75,-3.125,95.375,-0.08258056640625,0.7349853515625,-0.66357421875,0.11236572265625,67.0,100.0,67.0,-54.0,-974.0,-92.0,3085,4230,1926,
167,11.3544180393219,0.06988120079040527,14.310000238823894,14.707931258269355,2.6328984200881646e-38,-229.0,-783.0,136.0,-1.1875,54.25,-15.25,184.6875,-14.0,63.0,156.625,-7.3125,81.5625,-0.04833984375,0.6522216796875,-0.7408447265625,0.1529541015625,-104.0,178.0,-5.0,-125.0,-962.0,141.0,3099,4221,1806,
168,11.423658847808838,0.06924080848693848,14.44235013790515,14.706321524318273,2.6328984200881646e-38,-181.0,-920.0,331.0,2.5625,46.1875,-29.25,136.0,-30.6875,40.625,153.125,-9.75,71.375,-0.0322265625,0.58477783203125,-0.78839111328125,0.18829345703125,-15.0,-4.0,23.0,-166.0,-916.0,307.0,2951,4244,1892,
169,11.49515700340271,0.07149815559387207,13.986374776997849,14.70184356333488,2.6328984200881646e-38,-211.0,-1034.0,455.0,1.875,42.0625,-34.5625,103.9375,-23.4375,18.25,151.1875,-10.6875,63.3125,-0.0225830078125,0.5281982421875,-0.82220458984375,0.21075439453125,-29.0,-173.0,22.0,-181.0,-861.0,432.0,2852,4249,1957,
170,11.563317775726318,0.0681607723236084,14.67119526246384,14.701662904816427,2.6328984200881646e-38,-264.0,-1070.0,520.0,3.0,37.25,-37.0,58.75,-5.0625,10.0625,150.75,-10.9375,57.25,-0.01409912109375,0.48419189453125,-0.8465576171875,0.220703125,-78.0,-260.0,0.0,-186.0,-810.0,520.0,2783,4241,1993,
171,11.629503011703491,0.06618523597717285,15.109109837500585,14.703981746073936,2.6322527017558037e-38,-316.0,-1278.0,587.0,1.875,31.75,-42.6875,9.8125,15.4375,-15.75,151.4375,-10.9375,55.9375,-0.00946044921875,0.4747314453125,-0.8529052734375,0.2169189453125,-130.0,-480.0,48.0,-186.0,-798.0,538.0,2812,4247,2020,
172,11.698402881622314,0.06889986991882324,14.513815500351226,14.702861727407642,2.6322527017558037e-38,-255.0,-1057.0,543.0,2.1875,31.75,-43.5625,-37.625,10.3125,-18.1875,153.0625,-10.3125,57.9375,-0.01141357421875,0.4886474609375,-0.84844970703125,0.2030029296875,-68.0,-132.0,37.0,-175.0,-817.0,512.0,3023,4256,2024,
173,11.766604900360107,0.06820201873779297,14.662322589666504,14.70262675299869,2.6322527017558037e-38,-196.0,-663.0,516.0,2.6875,32.875,-42.375,-4.4375,-1.0,-21.0625,154.1875,-9.375,59.25,-0.0172119140625,0.49786376953125,-0.84521484375,0.19354248046875,-35.0,167.0,22.0,-160.0,-831.0,493.0,3028,4157,1742,
174,11.83427381515503,0.06766891479492188,14.777834150741304,14.703056792312406,2.6322527017558037e-38,-163.0,-523.0,452.0,2.0,35.5,-41.1875,-32.3125,13.6875,-7.1875,155.375,-8.75,60.6875,-0.0198974609375,0.5078125,-0.8414306640625,0.18365478515625,-14.0,321.0,-21.0,-150.0,-845.0,474.0,3112,4095,1558,
175,11.89956784248352,0.06529402732849121,15.315336500366971,14.70641642759661,2.6322527017558037e-38,-157.0,-522.0,476.0,2.25,37.25,-39.5625,-10.125,13.5,-3.75,156.0625,-8.9375,62.4375,-0.0164794921875,0.52154541015625,-0.834716796875,0.17596435546875,0.0,345.0,28.0,-153.0,-859.0,446.0,3124,4050,1445,
176,11.968348026275635,0.06878018379211426,14.53907135552975,14.705454722206008,2.6320374623116834e-38,-159.0,-585.0,492.0,2.25,37.25,-38.75,9.1875,14.5,-2.6875,156.8125,-9.125,62.6875,-0.01190185546875,0.5230712890625,-0.8348388671875,0.17120361328125,-3.0,275.0,49.0,-156.0,-860.0,443.0,3026,3994,1301,
177,12.034594774246216,0.06624674797058105,15.095080598433018,14.707599492986365,2.6320374623116834e-38,-175.0,-694.0,504.0,3.0625,37.0,-40.0,17.1875,6.0,4.1875,157.3125,-9.5,61.625,-0.00494384765625,0.51556396484375,-0.84014892578125,0.16827392578125,-13.0,185.0,54.0,-160.0,-852.0,456.0,3170,4041,1324,
178,12.102423906326294,0.06782913208007812,14.742927844328216,14.707797493934596,2.6320374623116834e-38,-181.0,-871.0,480.0,3.75,37.0,-38.375,11.875,23.0625,9.25,157.5625,-10.125,61.0,0.005615234375,0.51165771484375,-0.84283447265625,0.16693115234375,-107.0,14.0,169.0,-176.0,-843.0,467.0,3080,3991,1210,
179,12.168017864227295,0.06559395790100098,15.245306610545905,14.710695036554915,2.6320374623116834e-38,-139.0,-1146.0,179.0,3.0625,35.5,-40.375,-75.75,16.1875,-15.25,157.625,-10.5,64.375,0.00433349609375,0.53619384765625,-0.828125,0.163330078125,39.0,-277.0,-236.0,-178.0,-869.0,416.0,3081,4001,1202,
180,12.234586000442505,0.06656813621520996,15.02220216541849,14.71238994057418,2.6320374623116834e-38,-231.0,-1059.0,534.0,3.5,37.25,-35.1875,16.9375,15.375,-34.8125,159.8125,-9.6875,65.5,0.005859375,0.5440673828125,-0.82611083984375,0.146728515625,-65.0,-179.0,134.0,-166.0,-879.0,397.0,3086,4022,1238,
181,12.298473119735718,0.06388711929321289,15.652607459266612,14.717274106941295,2.6320374623116834e-38,49.0,-1145.0,200.0,3.75,40.0,-36.0,0.1875,-39.0,-42.3125,161.0625,-6.9375,65.875,-0.02020263671875,0.5439453125,-0.827880859375,0.13555908203125,185.0,-257.0,-262.0,-111.0,-888.0,399.0,3015,4024,1228,
182,12.36474609375,0.06627297401428223,15.08910705870079,14.719267069462544,2.6330419130509114e-38,-46.0,-1023.0,311.0,0.75,38.0625,-36.375,54.625,11.0625,-70.75,165.0,-3.25,63.125,-0.034912109375,0.5230712890625,-0.84429931640625,0.1109619140625,9.0,-149.0,-130.0,-56.0,-873.0,441.0,3116,4089,1352,
183,12.434813022613525,0.07006692886352539,14.272068381187006,14.716747221466255,2.6330419130509114e-38,37.0,-659.0,492.0,-3.1875,37.25,-37.5625,-5.25,-4.5625,-19.125,168.25,-0.0625,61.375,-0.0513916015625,0.50787353515625,-0.85540771484375,0.08770751953125,38.0,201.0,23.0,-1.0,-860.0,469.0,3177,4135,1436,
184,12.503307819366455,0.06849479675292969,14.599649132577762,14.71610574243411,2.6330419130509114e-38,-40.0,-905.0,478.0,-4.6875,35.75,-39.1875,-6.375,12.0625,7.25,168.5,0.4375,63.9375,-0.057861328125,0.52667236328125,-0.8438720703125,0.0845947265625,-46.0,-23.0,48.0,6.0,-881.0,429.0,3218,4152,1536,
185,12.570677042007446,0.06736922264099121,14.843573382595986,14.716788871576709,2.6330419130509114e-38,49.0,-1004.0,559.0,-4.6875,36.5625,-38.0,2.5,34.125,15.875,168.4375,-1.0,63.8125,-0.04266357421875,0.5272216796875,-0.8443603515625,0.08538818359375,67.0,-124.0,128.0,-17.0,-880.0,431.0,3243,4146,1614,
186,12.638616800308228,0.06793975830078125,14.71892195395845,14.71680033810851,2.6330419130509114e-38,-44.0,-865.0,494.0,-2.0625,38.0625,-37.5625,19.8125,69.5625,56.4375,168.1875,-4.6875,63.6875,-0.00567626953125,0.5283203125,-0.84454345703125,0.0870361328125,36.0,10.0,61.0,-80.0,-876.0,433.0,3289,4139,1635,
187,12.71315598487854,0.0745391845703125,13.415762538382804,14.709172153824287,2.6330419130509114e-38,-237.0,-775.0,596.0,0.75,36.5625,-38.375,11.375,106.0625,95.4375,166.125,-13.6875,62.5,0.07745361328125,0.51959228515625,-0.8447265625,0.10260009765625,-4.0,70.0,156.0,-232.0,-845.0,439.0,3321,4151,1688,
188,12.781745910644531,0.06858992576599121,14.579400529047193,14.708475768043172,2.6330419130509114e-38,-410.0,-708.0,419.0,13.0625,35.75,-37.1875,4.4375,95.5625,89.1875,164.875,-21.0,63.1875,0.1458740234375,0.51806640625,-0.83551025390625,0.1107177734375,-34.0,116.0,-11.0,-351.0,-817.0,412.0,3217,4122,1581,
189,12.849504709243774,0.06775879859924316,14.758230970334376,14.708738140236312,2.6330419130509114e-38,-510.0,-648.0,285.0,19.0,34.0,-37.5625,-17.3125,71.3125,69.375,162.5,-28.875,64.625,0.2158203125,0.515869140625,-0.81939697265625,0.1259765625,-36.0,127.0,-81.0,-474.0,-775.0,367.0,3098,4094,1660,
190,12.918111085891724,0.06860637664794922,14.575904585829662,14.708032678826008,2.6330419130509114e-38,-677.0,-654.0,376.0,23.75,32.875,-35.25,2.125,63.8125,41.6875,160.9375,-34.0625,66.375,0.26202392578125,0.51544189453125,-0.8046875,0.13470458984375,-127.0,89.0,51.0,-549.0,-744.0,324.0,3087,4054,1649,
191,12.986286878585815,0.0681757926940918,14.66796293058227,14.707822319477327,2.6330419130509114e-38,-605.0,-678.0,217.0,31.875,31.375,-32.5,-8.125,53.875,20.5625,161.6875,-37.1875,69.0,0.29913330078125,0.51776123046875,-0.7913818359375,0.12725830078125,-11.0,50.0,-62.0,-593.0,-728.0,279.0,3076,4018,1607,
192,13.056581020355225,0.07029414176940918,14.225936540777045,14.705227938360876,2.6330419130509114e-38,-609.0,-714.0,147.0,33.25,30.6875,-30.5,7.125,60.9375,37.125,162.125,-40.375,71.5,0.3353271484375,0.51654052734375,-0.7783203125,0.12213134765625,26.0,-6.0,-89.0,-635.0,-708.0,236.0,3063,3959,1565,
193,13.127822875976562,0.07124185562133789,14.03669221244269,14.70159993955913,2.6326831806440443e-38,-660.0,-655.0,138.0,37.6875,28.5625,-27.25,4.375,23.5625,33.0,161.625,-43.375,72.6875,0.36444091796875,0.50921630859375,-0.76971435546875,0.12408447265625,13.0,24.0,-73.0,-674.0,-680.0,211.0,3047,3914,1513,
194,13.19780683517456,0.06998395919799805,14.288988669114993,14.699411987373132,2.6326831806440443e-38,-682.0,-629.0,202.0,40.0,28.5625,-27.6875,2.6875,18.5625,28.5625,160.4375,-45.75,73.0625,0.38232421875,0.50250244140625,-0.7642822265625,0.13134765625,20.0,25.0,3.0,-702.0,-654.0,198.0,3054,3894,1492,
195,13.266906976699829,0.06910014152526855,14.471750389025177,14.69822622126402,2.6326831806440443e-38,-707.0,-622.0,142.0,40.1875,26.6875,-26.1875,3.9375,15.25,24.3125,159.6875,-47.75,73.5625,0.39935302734375,0.49554443359375,-0.75927734375,0.13568115234375,19.0,9.0,-43.0,-726.0,-631.0,186.0,3056,3886,1499,
196,13.332551956176758,0.06564497947692871,15.233457424591862,14.700861518802958,2.6326831806440443e-38,-766.0,-611.0,180.0,42.1875,25.1875,-25.75,-1.25,-0.875,9.375,159.0,-49.0,73.5,0.40765380859375,0.49072265625,-0.75726318359375,0.13995361328125,-26.0,5.0,-1.0,-740.0,-616.0,182.0,3061,3883,1492,
197,13.398512840270996,0.06596088409423828,15.160500253018146,14.703124320476116,2.6326831806440443e-38,-726.0,-647.0,191.0,42.75,22.5625,-25.75,1.875,-0.6875,3.75,158.75,-49.1875,73.3125,0.4083251953125,0.4896240234375,-0.75726318359375,0.141845703125,16.0,-33.0,8.0,-742.0,-613.0,183.0,3064,3897,1491,
198,13.463339805603027,0.06482696533203125,15.425679651641756,14.706603477214362,2.6326831806440443e-38,-775.0,-630.0,218.0,42.0625,24.0625,-26.5625,-3.5,-3.4375,13.5,157.8125,-49.75,73.0,0.4091796875,0.48822021484375,-0.7564697265625,0.14813232421875,-26.0,-24.0,33.0,-748.0,-605.0,184.0,3055,3917,1472,
199,13.533163785934448,0.0698239803314209,14.321727223992106,14.704617718942304,2.631822222867563e-38,-776.0,-555.0,203.0,43.1875,22.25,-25.75,-4.5,1.875,-0.875,157.25,-50.25,73.0625,0.41162109375,0.48748779296875,-0.75494384765625,0.1517333984375,-22.0,43.0,21.0,-754.0,-599.0,182.0,3041,3928,1468,
200,13.60047698020935,0.06731319427490234,14.855928481362367,14.70536660523221,2.631822222867563e-38,-735.0,-644.0,146.0,42.0625,21.875,-26.1875,-5.8125,-0.9375,-3.5625,157.4375,-49.9375,73.5625,0.409912109375,0.49114990234375,-0.7537841796875,0.15020751953125,15.0,-39.0,-31.0,-750.0,-605.0,177.0,3036,3940,1459,
201,13.666506052017212,0.06602907180786133,15.14484412123663,14.707489919878379,2.631822222867563e-38,-761.0,-597.0,161.0,42.875,22.5625,-25.0,-4.375,4.25,5.0,157.0625,-50.1875,73.9375,0.411376953125,0.4923095703125,-0.7518310546875,0.152099609375,-8.0,5.0,-11.0,-753.0,-603.0,173.0,3049,3959,1450,
202,13.73107099533081,0.06456494331359863,15.488281235575414,14.711161282953762,2.631822222867563e-38,-772.0,-602.0,122.0,42.875,23.0,-25.0,1.625,3.25,6.75,156.9375,-50.6875,74.25,0.41619873046875,0.49102783203125,-0.7498779296875,0.15283203125,-13.0,-4.0,-45.0,-759.0,-597.0,168.0,3042,3962,1472,
203,13.800511121749878,0.06944012641906738,14.400895441420346,14.709600116191927,2.631822222867563e-38,-800.0,-560.0,148.0,42.875,22.6875,-24.5625,5.4375,4.0625,5.625,156.75,-51.125,74.1875,0.41912841796875,0.48895263671875,-0.74932861328125,0.15411376953125,-37.0,31.0,-19.0,-763.0,-591.0,167.0,3036,3944,1457,
204,13.86615777015686,0.06564664840698242,15.233070145491789,14.71207838403906,2.6317504763861897e-38,-789.0,-605.0,140.0,43.6875,22.25,-25.0,5.75,3.5625,-0.375,157.0625,-51.1875,74.25,0.4210205078125,0.487548828125,-0.74969482421875,0.1517333984375,-25.0,-13.0,-26.0,-764.0,-591.0,166.0,3038,3942,1432,
205,13.932122945785522,0.06596517562866211,15.159513947621424,14.714196881388608,2.6317504763861897e-38,-761.0,-582.0,150.0,43.25,22.25,-25.375,9.125,4.75,3.125,157.375,-51.375,73.9375,0.42364501953125,0.4842529296875,-0.75067138671875,0.1500244140625,5.0,5.0,-18.0,-766.0,-588.0,168.0,3041,3945,1451,
206,13.998804092407227,0.0666811466217041,14.996742717596119,14.715542744950033,2.6317504763861897e-38,-776.0,-574.0,143.0,44.0625,22.5625,-24.1875,14.125,-4.25,6.1875,157.5625,-51.625,73.25,0.42608642578125,0.47882080078125,-0.7529296875,0.1492919921875,-6.0,7.0,-31.0,-769.0,-582.0,174.0,3061,3955,1453,
207,14.065192937850952,0.06638884544372559,15.062771363415992,14.717181692043532,2.6317504763861897e-38,-754.0,-604.0,255.0,44.0625,21.5625,-24.5625,6.25,1.4375,-6.625,157.9375,-51.5,72.3125,0.42486572265625,0.4744873046875,-0.75677490234375,0.14727783203125,13.0,-22.0,70.0,-767.0,-581.0,185.0,3088,3959,1464,
208,14.137205839157104,0.07201290130615234,13.88640065685794,14.712949812464602,2.6317504763861897e-38,-764.0,-605.0,204.0,43.6875,20.0625,-26.1875,0.5625,-3.8125,2.75,158.25,-51.4375,72.0625,0.42535400390625,0.4725341796875,-0.758056640625,0.14532470703125,3.0,-23.0,16.0,-767.0,-581.0,187.0,3092,3966,1482,
209,14.204173803329468,0.06696796417236328,14.93251306589197,14.71398498031686,2.6317504763861897e-38,-788.0,-593.0,208.0,44.0625,20.75,-25.375,-5.25,-1.0625,4.125,157.8125,-51.5625,71.75,0.42413330078125,0.472412109375,-0.75823974609375,0.14862060546875,-20.0,-14.0,18.0,-768.0,-578.0,190.0,3078,3951,1467,
210,14.275860071182251,0.0716862678527832,13.949673067840918,14.71014698609391,2.632826673606791e-38,-796.0,-574.0,169.0,43.6875,20.375,-25.5,-7.0,2.125,8.875,157.1875,-51.9375,72.125,0.42584228515625,0.4735107421875,-0.755859375,0.15216064453125,-23.0,0.0,-16.0,-772.0,-574.0,185.0,3066,3942,1473,
211,14.342458009719849,0.06659793853759766,15.01547978749302,14.711564772022049,2.632826673606791e-38,-820.0,-531.0,162.0,44.0625,20.75,-24.5625,-4.75,3.75,5.375,156.5,-52.5625,72.5,0.42919921875,0.473876953125,-0.7528076171875,0.156494140625,-41.0,36.0,-16.0,-779.0,-567.0,178.0,3060,3923,1454,
212,14.412900924682617,0.07044291496276855,14.19589181578493,14.709044425396852,2.632826673606791e-38,-787.0,-574.0,177.0,44.0625,21.1875,-24.5625,1.125,4.75,-1.25,156.5,-52.9375,73.0625,0.43316650390625,0.47412109375,-0.75048828125,0.156005859375,-4.0,-9.0,6.0,-782.0,-565.0,171.0,3082,3925,1486,
213,14.483694791793823,0.07079386711120605,14.125517376090741,14.706192243203137,2.632826673606791e-38,-775.0,-583.0,158.0,44.0625,21.1875,-24.1875,3.8125,7.25,7.6875,156.5,-53.25,73.4375,0.4365234375,0.47357177734375,-0.74896240234375,0.15576171875,10.0,-20.0,-8.0,-785.0,-562.0,167.0,3090,3906,1500,
214,14.550794839859009,0.06710004806518555,14.90311898180061,14.707100358104807,2.632826673606791e-38,-804.0,-562.0,196.0,44.375,21.1875,-24.1875,4.125,5.875,11.0625,156.125,-54.0,73.4375,0.442138671875,0.47015380859375,-0.74737548828125,0.1578369140625,-11.0,-8.0,15.0,-792.0,-553.0,164.0,3114,3885,1523,
215,14.617207765579224,0.06641292572021484,15.057309840750154,14.708691526317672,2.632826673606791e-38,-780.0,-557.0,190.0,45.0625,20.0625,-25.0,0.6875,12.1875,6.875,155.9375,-54.625,73.9375,0.44757080078125,0.46868896484375,-0.74493408203125,0.1585693359375,18.0,-11.0,33.0,-799.0,-545.0,156.0,3094,3863,1539,
216,14.68802285194397,0.0708150863647461,14.12128476196889,14.705859473211008,2.63218095527443e-38,-730.0,-595.0,143.0,45.875,19.25,-23.75,-5.8125,7.4375,10.5625,155.75,-55.1875,74.875,0.45367431640625,0.4688720703125,-0.74102783203125,0.15887451171875,74.0,-55.0,-2.0,-805.0,-540.0,145.0,3114,3856,1592,
217,14.754153966903687,0.0661311149597168,15.12147497602515,14.7077223463149,2.63218095527443e-38,-805.0,-563.0,140.0,45.0625,18.875,-23.0,-5.5,-0.5,33.375,154.0625,-56.6875,74.875,0.460205078125,0.46563720703125,-0.7366943359375,0.16943359375,14.0,-44.0,0.0,-819.0,-519.0,140.0,3067,3847,1613,
218,14.823452949523926,0.06929898262023926,14.43022627734715,14.706425064546202,2.63218095527443e-38,-891.0,-472.0,105.0,46.5625,18.875,-23.5,-1.1875,2.4375,30.375,151.625,-58.875,74.3125,0.46966552734375,0.45794677734375,-0.7318115234375,0.18463134765625,-50.0,23.0,-37.0,-839.0,-487.0,136.0,3071,3853,1630,
219,14.892023801803589,0.06857085227966309,14.583455896414204,14.70585884864599,2.63218095527443e-38,-902.0,-467.0,47.0,47.375,16.0,-23.375,3.9375,2.5,10.4375,150.6875,-60.0625,73.9375,0.47552490234375,0.45281982421875,-0.72967529296875,0.1907958984375,-52.0,2.0,-87.0,-849.0,-470.0,134.0,3036,3865,1670,
220,14.955142974853516,0.06311917304992676,15.843046600262143,14.710658424992749,2.63218095527443e-38,-903.0,-455.0,21.0,47.25,15.1875,-22.1875,12.875,5.8125,1.3125,150.75,-60.5,74.0,0.48028564453125,0.4490966796875,-0.72906494140625,0.1898193359375,-49.0,8.0,-110.0,-854.0,-463.0,132.0,2940,3940,1647,
221,15.02428388595581,0.06914091110229492,14.463216987703364,14.70951971338769,2.6334006454577786e-38,-906.0,-446.0,27.0,48.5,14.5,-23.375,23.1875,5.375,-4.0625,151.8125,-60.8125,74.625,0.4874267578125,0.4449462890625,-0.72869873046875,0.182861328125,-64.0,22.0,-62.0,-855.0,-461.0,127.0,2950,4005,1467,
222,15.091402769088745,0.06711888313293457,14.898936831523496,14.710362144380358,2.6334006454577786e-38,-934.0,-411.0,103.0,48.0,13.75,-23.0,38.0625,9.9375,-4.875,154.1875,-60.5,73.4375,0.49224853515625,0.43304443359375,-0.736083984375,0.1683349609375,-80.0,51.0,-33.0,-853.0,-462.0,137.0,2957,4064,1394,
223,15.164422988891602,0.07302021980285645,13.694836891752022,14.705472154354586,2.6334006454577786e-38,-872.0,-360.0,184.0,48.0,13.6875,-21.375,42.3125,9.75,-11.25,156.875,-60.375,71.8125,0.4991455078125,0.41717529296875,-0.74407958984375,0.15216064453125,-19.0,98.0,33.0,-852.0,-459.0,150.0,2966,4123,1368,
224,15.231743097305298,0.06732010841369629,14.854402697256349,14.706130386326477,2.6334006454577786e-38,-816.0,-432.0,116.0,50.1875,11.5625,-22.5625,39.8125,7.4375,-18.5,160.1875,-59.625,71.0,0.5035400390625,0.405517578125,-0.75152587890625,0.13104248046875,29.0,36.0,-44.0,-845.0,-469.0,163.0,2965,4161,1352,
225,15.301832914352417,0.07008981704711914,14.26740776520692,14.704120823915174,2.6334006454577786e-38,-815.0,-529.0,130.0,48.375,12.6875,-24.1875,30.9375,1.8125,3.8125,162.75,-59.0,69.1875,0.50469970703125,0.3924560546875,-0.76031494140625,0.11492919921875,10.0,-58.0,-37.0,-841.0,-471.0,178.0,2977,4187,1350,
226,15.367564916610718,0.06573200225830078,15.21328980776206,14.706298702907565,2.6334006454577786e-38,-922.0,-491.0,179.0,49.0625,12.6875,-22.5625,25.1875,4.9375,17.0625,163.25,-59.75,67.375,0.50982666015625,0.37884521484375,-0.76416015625,0.1123046875,-85.0,-23.0,0.0,-847.0,-455.0,189.0,2904,4233,1512,
227,15.437854051589966,0.07028913497924805,14.22694987347955,14.70411620950782,2.6330419130509114e-38,-953.0,-427.0,163.0,49.5,10.75,-23.375,25.5625,11.9375,2.8125,163.8125,-60.625,66.375,0.5172119140625,0.3665771484375,-0.76568603515625,0.10882568359375,-98.0,12.0,-28.0,-855.0,-439.0,192.0,2887,4244,1540,
228,15.514992952346802,0.07713890075683594,12.963627821872759,14.695462685692851,2.6330419130509114e-38,-918.0,-491.0,232.0,49.5,11.5625,-22.5625,30.3125,4.875,-19.9375,166.8125,-60.0,65.6875,0.52056884765625,0.35528564453125,-0.77130126953125,0.08905029296875,-68.0,-55.0,50.0,-849.0,-446.0,201.0,2858,4255,1588,
229,15.584011793136597,0.06901884078979492,14.488797385711226,14.69454740151407,2.6330419130509114e-38,-863.0,-477.0,258.0,49.75,10.0625,-21.75,33.6875,12.75,-25.1875,169.75,-59.0,65.5625,0.52178955078125,0.3486328125,-0.7755126953125,0.06915283203125,-22.0,-17.0,50.0,-840.0,-459.0,208.0,2837,4286,1657,
230,15.65729284286499,0.07328104972839355,13.64609273074508,14.689640304250343,2.6330419130509114e-38,-794.0,-471.0,205.0,48.75,10.0625,-22.1875,29.0,4.125,-35.5,174.4375,-57.125,65.875,0.521484375,0.34271240234375,-0.780517578125,0.037841796875,36.0,17.0,-7.0,-823.0,-485.0,216.0,2893,4308,1600,
231,15.72794508934021,0.07065224647521973,14.153831617381563,14.687233372690423,2.6330419130509114e-38,-758.0,-499.0,234.0,48.75,11.5625,-21.375,27.75,0.25,-35.375,177.625,-55.1875,65.625,0.51580810546875,0.3411865234375,-0.78570556640625,0.015869140625,46.0,10.0,3.0,-805.0,-509.0,230.0,3003,4307,1430,
232,15.798933744430542,0.07098865509033203,14.086757929524296,14.684535282755073,2.6330419130509114e-38,-734.0,-550.0,222.0,47.6875,13.6875,-21.375,16.8125,2.75,-13.625,180.6875,-53.4375,65.1875,0.51043701171875,0.3387451171875,-0.79034423828125,-0.0050048828125,48.0,-23.0,-27.0,-787.0,-530.0,244.0,3064,4288,1354,
233,15.86618685722351,0.06725311279296875,14.86920022688599,14.685318034932914,2.6330419130509114e-38,-820.0,-474.0,268.0,47.6875,15.5,-21.375,12.5,19.3125,11.375,181.125,-54.0,64.8125,0.5152587890625,0.33123779296875,-0.7904052734375,-0.0078125,-41.0,58.0,14.0,-793.0,-521.0,244.0,3097,4255,1278,
234,15.934456825256348,0.06826996803283691,14.647729137928025,14.685156988163323,2.6330419130509114e-38,-882.0,-453.0,199.0,48.875,14.375,-20.875,13.5625,33.1875,4.1875,181.9375,-55.1875,66.0,0.52862548828125,0.3232421875,-0.7847900390625,-0.013427734375,-77.0,58.0,-28.0,-805.0,-511.0,227.0,2905,4327,1577,
235,16.00060486793518,0.06614804267883301,15.117605291138783,14.686944771127637,2.6330419130509114e-38,-862.0,-662.0,301.0,48.875,13.6875,-20.0625,17.125,43.75,-6.0,184.25,-55.75,68.6875,0.5450439453125,0.31768798828125,-0.77532958984375,-0.02880859375,-51.0,-148.0,101.0,-810.0,-513.0,200.0,2740,4398,2033,
236,16.067625045776367,0.06702017784118652,14.920879535259317,14.6879205438041,2.6330419130509114e-38,-752.0,-727.0,245.0,48.875,14.0,-18.0625,9.75,40.8125,-21.375,187.375,-55.9375,72.5,0.56353759765625,0.31378173828125,-0.7625732421875,-0.04937744140625,75.0,-206.0,65.0,-812.0,-523.0,164.0,2839,4378,1991,
237,16.136014938354492,0.068389892578125,14.622043730477465,14.68764133557307,2.6330419130509114e-38,-748.0,-724.0,264.0,50.6875,13.6875,-14.0625,23.375,24.875,-18.5,190.375,-55.5,74.25,0.5731201171875,0.30810546875,-0.75616455078125,-0.0689697265625,60.0,-189.0,114.0,-808.0,-534.0,150.0,2939,4364,1961,
238,16.200387954711914,0.06437301635742188,15.53445925925926,14.691006207093778,2.633113659532285e-38,-774.0,-704.0,310.0,51.0625,14.75,-12.875,13.75,-0.6875,-47.4375,193.875,-53.75,74.3125,0.5711669921875,0.306884765625,-0.7557373046875,-0.0921630859375,16.0,-146.0,153.0,-791.0,-558.0,156.0,3029,4410,1849,
239,16.268743991851807,0.06835603713989258,14.62928574916465,14.690746877552627,2.633113659532285e-38,-651.0,-672.0,318.0,50.0,17.375,-14.875,-4.8125,-6.0,-56.5,197.1875,-50.125,74.875,0.557373046875,0.3255615234375,-0.75518798828125,-0.1141357421875,101.0,-65.0,154.0,-752.0,-606.0,163.0,3171,4364,1826,
240,16.33520483970642,0.06646084785461426,15.04645264513537,14.692194089701621,2.633113659532285e-38,-562.0,-606.0,137.0,47.5,21.75,-13.25,-24.4375,-0.625,-41.25,199.3125,-47.25,76.625,0.549072265625,0.34686279296875,-0.74957275390625,-0.1278076171875,157.0,40.0,-16.0,-720.0,-647.0,153.0,3300,4371,1832,
241,16.403892040252686,0.06868720054626465,14.558753189052222,14.691635339261087,2.633113659532285e-38,-523.0,-539.0,-58.0,48.1875,23.25,-13.25,-26.3125,-2.25,-5.0625,199.875,-45.5,79.1875,0.54638671875,0.3687744140625,-0.74066162109375,-0.1300048828125,172.0,154.0,-179.0,-699.0,-675.0,128.0,3245,4350,1742,
242,16.474131107330322,0.07023906707763672,14.237091146080841,14.689697345696112,2.633113659532285e-38,-580.0,-579.0,54.0,47.75,24.75,-12.1875,-16.375,6.75,14.4375,198.9375,-45.9375,80.3125,0.5501708984375,0.3726806640625,-0.737060546875,-0.1231689453125,125.0,91.0,-59.0,-705.0,-671.0,114.0,3020,4442,2099,
243,16.542528867721558,0.06839776039123535,14.620361752782513,14.68941066647623,2.6326831806440443e-38,-776.0,-741.0,129.0,47.0625,25.5,-12.0625,-3.0,34.75,43.375,197.3125,-48.75,82.75,0.57232666015625,0.36187744140625,-0.7274169921875,-0.11114501953125,-75.0,-149.0,83.0,-737.0,-641.0,81.0,2844,4669,2752,
244,16.613332986831665,0.07080411911010742,14.123472088465657,14.686998701187974,2.6326831806440443e-38,-883.0,-930.0,-7.0,49.0,23.5625,-9.25,-28.25,30.75,7.125,196.9375,-50.3125,87.125,0.5955810546875,0.35968017578125,-0.71044921875,-0.1058349609375,-145.0,-311.0,-59.0,-755.0,-624.0,31.0,2662,4705,2569,
245,16.682305812835693,0.06897282600402832,14.498463495487274,14.68621920427164,2.6326831806440443e-38,-896.0,-912.0,170.0,50.0,21.75,-4.875,-39.6875,-13.5,-16.8125,196.8125,-50.0,89.1875,0.599853515625,0.36859130859375,-0.7025146484375,-0.10394287109375,-144.0,-282.0,161.0,-751.0,-630.0,8.0,2579,4726,2450,
246,16.750630855560303,0.06832504272460938,14.635922059069845,14.686014044560078,2.6326831806440443e-38,-814.0,-596.0,13.0,48.5625,23.5625,-4.0625,-33.6875,17.125,-6.25,195.875,-49.0625,91.875,0.599853515625,0.388671875,-0.692626953125,-0.0966796875,-73.0,44.0,35.0,-741.0,-641.0,-21.0,2272,4859,2535,
247,16.818379878997803,0.0677490234375,14.76036036036036,14.686313531807237,2.6326831806440443e-38,-783.0,-369.0,-153.0,48.25,24.375,-2.875,-14.8125,4.0,-26.625,197.1875,-47.8125,94.4375,0.605224609375,0.39990234375,-0.6805419921875,-0.10296630859375,-56.0,286.0,-102.0,-727.0,-656.0,-51.0,2224,4946,2498,
248,16.88651704788208,0.06813716888427734,14.676277520399736,14.686273036458063,2.6326831806440443e-38,-695.0,-415.0,-134.0,47.1875,27.25,-1.6875,5.0625,0.0,-61.4375,200.3125,-44.75,94.4375,0.595458984375,0.4158935546875,-0.676513671875,-0.121337890625,-4.0,278.0,-80.0,-691.0,-693.0,-54.0,2193,5035,2462,
249,16.95179510116577,0.0652780532836914,15.319084281728001,14.688709869014186,2.6326831806440443e-38,-577.0,-518.0,-138.0,46.375,30.0,-0.875,11.25,-2.25,-52.25,204.6875,-41.0,93.375,0.58062744140625,0.4302978515625,-0.6751708984375,-0.14788818359375,66.0,219.0,-94.0,-644.0,-738.0,-43.0,2156,5135,2454,
250,17.022103786468506,0.07030868530273438,14.222993869025013,14.686786259565293,2.6326831806440443e-38,-578.0,-613.0,-108.0,43.875,32.0625,-2.1875,14.625,2.875,0.3125,206.875,-39.4375,92.3125,0.57342529296875,0.43243408203125,-0.6767578125,-0.16192626953125,44.0,142.0,-77.0,-623.0,-756.0,-30.0,2280,5140,2361,
251,17.090776920318604,0.06867313385009766,14.561735338638226,14.686283787461717,2.6326831806440443e-38,-698.0,-594.0,-226.0,43.1875,33.25,-2.5625,16.4375,18.9375,32.1875,206.75,-40.75,92.0625,0.581298828125,0.41937255859375,-0.6783447265625,-0.1614990234375,-49.0,152.0,-175.0,-640.0,-742.0,-27.0,2251,5227,2377,
252,17.159735918045044,0.06895899772644043,14.501370857607135,14.685540686846979,2.6326831806440443e-38,-718.0,-666.0,-172.0,43.5625,31.75,-1.375,16.9375,13.5625,33.5,206.3125,-43.375,92.0625,0.5980224609375,0.39459228515625,-0.6793212890625,-0.1588134765625,-44.0,45.0,-146.0,-673.0,-711.0,-26.0,2067,5399,2517,
253,17.22389006614685,0.06415414810180664,15.587456611739173,14.688900070098887,2.6326831806440443e-38,-705.0,-776.0,-46.0,44.375,31.5625,-2.1875,14.625,9.0,26.4375,205.8125,-44.875,91.8125,0.6055908203125,0.38043212890625,-0.6812744140625,-0.1563720703125,-12.0,-81.0,-23.0,-692.0,-694.0,-22.0,2164,5388,2485,
254,17.28967308998108,0.06578302383422852,15.201490319447364,14.690850352005006,2.632611434162671e-38,-736.0,-788.0,80.0,44.6875,27.75,-3.0,4.375,-4.5,7.375,205.375,-46.0625,91.3125,0.60986328125,0.3687744140625,-0.68426513671875,-0.154296875,-29.0,-99.0,93.0,-706.0,-680.0,-16.0,2245,5385,2416,
255,17.360652923583984,0.07097983360290527,14.088508654366146,14.688387650074457,2.632611434162671e-38,-687.0,-726.0,166.0,45.0625,26.6875,-1.375,6.625,-6.8125,-4.875,205.5625,-46.0625,90.4375,0.6070556640625,0.36651611328125,-0.68756103515625,-0.15618896484375,19.0,-46.0,172.0,-706.0,-680.0,-5.0,2253,5419,2377,
256,17.428470849990845,0.06781792640686035,14.74536384378219,14.688609356691467,2.632611434162671e-38,-631.0,-791.0,66.0,44.375,28.5,-3.375,7.125,-23.3125,-16.0,206.75,-45.0,89.25,0.59967041015625,0.368896484375,-0.6907958984375,-0.16448974609375,62.0,-98.0,58.0,-693.0,-693.0,8.0,2182,5540,2331,
259,17.568951845169067,0.03274798393249512,30.536230934439956,14.741915299359034,2.632611434162671e-38,-625.0,-851.0,165.0,43.1875,29.1875,-5.75,-3.125,-77.625,-17.9375,205.375,-40.1875,82.4375,0.536865234375,0.40191650390625,-0.7236328125,-0.1630859375,8.0,-109.0,66.0,-633.0,-742.0,98.0,1971,5960,2303,
260,17.63557481765747,0.06662297248840332,15.009837637821763,14.74292744570351,2.632611434162671e-38,-711.0,-554.0,318.0,40.25,30.75,-11.75,3.1875,-79.25,-20.875,202.875,-39.0,78.4375,0.50531005859375,0.40887451171875,-0.74481201171875,-0.15081787109375,-94.0,191.0,166.0,-617.0,-746.0,152.0,2125,5879,2357,
261,17.704638957977295,0.06906414031982422,14.479294107899861,14.741899036715433,2.6323961947185505e-38,-611.0,-631.0,354.0,38.375,31.875,-13.0,-13.5,-85.3125,-60.9375,201.875,-34.5,75.5625,0.448486328125,0.43951416015625,-0.76409912109375,-0.14776611328125,-63.0,69.0,236.0,-544.0,-788.0,207.0,2150,5814,2317,
262,17.77253484725952,0.06789588928222656,14.728432171250386,14.741847589647557,2.6323961947185505e-38,-479.0,-681.0,326.0,35.0625,33.0,-15.75,-11.375,-103.375,-56.5,201.3125,-28.875,73.3125,0.398681640625,0.46453857421875,-0.777099609375,-0.14630126953125,-5.0,140.0,80.0,-474.0,-822.0,245.0,2117,5785,2459,
263,17.840356826782227,0.06782197952270508,14.744482644674584,14.741857607084418,2.6323961947185505e-38,-239.0,-1139.0,308.0,28.0,36.6875,-19.875,-29.875,-126.5625,-38.375,199.0625,-22.875,71.0625,0.3280029296875,0.49298095703125,-0.794677734375,-0.13372802734375,142.0,-285.0,15.0,-381.0,-854.0,293.0,2101,5785,2264,
264,17.909703969955444,0.06934714317321777,14.420204701182344,14.740612153214544,2.6323961947185505e-38,-544.0,-722.0,427.0,24.375,38.875,-22.0,10.625,-105.25,-8.8125,194.6875,-20.1875,69.125,0.270263671875,0.50616455078125,-0.81280517578125,-0.100830078125,-214.0,137.0,92.0,-330.0,-860.0,334.0,2075,5857,2034,
265,17.982399940490723,0.07269597053527832,13.755920618938765,14.736631421665978,2.6323961947185505e-38,-251.0,-740.0,328.0,18.0,39.75,-24.75,-26.375,-97.8125,-64.125,191.3125,-14.875,68.125,0.20904541015625,0.525634765625,-0.820556640625,-0.08172607421875,0.0,139.0,-24.0,-252.0,-879.0,353.0,2349,5778,2198,
266,18.051471948623657,0.06907200813293457,14.477644809101546,14.73564043735953,2.633831124346019e-38,-233.0,-984.0,591.0,13.875,41.5625,-26.5,0.75,-51.0,-79.9375,192.3125,-8.9375,68.5,0.1536865234375,0.54351806640625,-0.8204345703125,-0.088623046875,-66.0,-56.0,218.0,-137.0,-903.0,356.0,2380,5787,2262,
267,18.12265682220459,0.07118487358093262,14.047928298461672,14.73293913908148,2.633831124346019e-38,-181.0,-1022.0,486.0,9.5,41.5625,-24.875,-18.9375,-15.0,-77.25,196.3125,-2.6875,69.0,0.10858154296875,0.55615234375,-0.81561279296875,-0.1170654296875,-135.0,-107.0,135.0,-46.0,-914.0,350.0,2454,5861,2344,
268,18.18944787979126,0.06679105758666992,14.972064167457932,14.733817198363226,2.633831124346019e-38,35.0,-1030.0,616.0,3.0625,42.0,-25.375,11.125,20.4375,-78.5625,201.1875,2.25,68.9375,0.0806884765625,0.5606689453125,-0.80999755859375,-0.15191650390625,-3.0,-115.0,265.0,38.0,-914.0,351.0,2473,5866,2278,
269,18.260565042495728,0.07111716270446777,14.061303375608055,14.73119804200949,2.633831124346019e-38,80.0,-968.0,403.0,0.1875,42.375,-26.5625,-54.1875,65.3125,-84.0625,209.3125,6.1875,70.6875,0.08154296875,0.57373046875,-0.79290771484375,-0.2064208984375,-23.0,-56.0,107.0,106.0,-920.0,322.0,2562,5792,2224,
270,18.3287250995636,0.0681600570678711,14.671349218564172,14.730975478836148,2.633831124346019e-38,251.0,-930.0,360.0,-3.5625,44.6875,-23.0625,-17.5625,25.75,-84.9375,216.9375,10.5,72.3125,0.076416015625,0.58746337890625,-0.76409912109375,-0.2552490234375,71.0,-11.0,68.0,179.0,-918.0,292.0,2507,5733,2118,
271,18.4002468585968,0.07152175903320312,13.981759027148115,14.728063274509045,2.633831124346019e-38,321.0,-729.0,322.0,-6.5,43.1875,-22.6875,-8.0,49.75,-52.0625,223.375,14.125,72.0625,0.0706787109375,0.58837890625,-0.74847412109375,-0.2977294921875,82.0,175.0,31.0,234.0,-906.0,291.0,2468,5885,2293,
272,18.467434883117676,0.06718802452087402,14.883604736575032,14.72862916379651,2.6334006454577786e-38,334.0,-721.0,339.0,-8.75,43.1875,-23.0625,5.0625,34.875,-31.4375,227.25,15.5625,71.125,0.07330322265625,0.58233642578125,-0.74176025390625,-0.32452392578125,70.0,172.0,34.0,264.0,-893.0,304.0,2343,6046,2460,
273,18.53335475921631,0.06591987609863281,15.169931425595324,14.73019879815563,2.6334006454577786e-38,341.0,-875.0,432.0,-8.375,42.5,-23.0625,3.125,39.3125,-14.625,229.75,16.1875,70.1875,0.078125,0.57586669921875,-0.73822021484375,-0.342529296875,67.0,10.0,114.0,273.0,-886.0,318.0,2554,5972,2507,
274,18.600827932357788,0.06747317314147949,14.820705080864867,14.730527103223869,2.6334006454577786e-38,193.0,-825.0,407.0,-8.75,42.875,-22.6875,2.0625,19.125,-10.375,231.625,16.0,69.375,0.08721923828125,0.5684814453125,-0.73638916015625,-0.35626220703125,-77.0,56.0,75.0,271.0,-882.0,331.0,2752,5932,2434,
275,18.667393922805786,0.06656599044799805,15.02268640892843,14.731568913003704,2.6334006454577786e-38,274.0,-863.0,337.0,-7.375,42.875,-24.0,-5.4375,3.9375,-12.375,233.0625,16.75,69.3125,0.0867919921875,0.56890869140625,-0.73162841796875,-0.36541748046875,-9.0,15.0,6.0,283.0,-878.0,331.0,2680,5852,2175,
276,18.735548973083496,0.06815505027770996,14.672427001745591,14.73135377012526,2.6334006454577786e-38,206.0,-910.0,286.0,-8.375,43.25,-23.5,11.0,12.125,2.9375,233.3125,16.6875,68.9375,0.08795166015625,0.56622314453125,-0.732421875,-0.36773681640625,-75.0,-33.0,-50.0,282.0,-876.0,336.0,2943,5883,2083,
277,18.801235914230347,0.06568694114685059,15.223726094420913,14.73307399915892,2.633472391939152e-38,211.0,-855.0,278.0,-8.0625,42.75,-24.0,23.875,20.75,7.8125,233.3125,15.9375,67.3125,0.09210205078125,0.55364990234375,-0.73956298828125,-0.37152099609375,-58.0,14.0,-83.0,269.0,-870.0,362.0,2923,5962,2069,
278,18.867275714874268,0.0660398006439209,15.142383687556636,14.734506677126417,2.633472391939152e-38,270.0,-857.0,376.0,-7.375,42.375,-26.0,22.1875,19.5625,8.875,233.375,14.8125,65.4375,0.09906005859375,0.53790283203125,-0.74786376953125,-0.37628173828125,18.0,4.0,-17.0,251.0,-862.0,393.0,2682,6122,2079,
279,18.934943675994873,0.06766796112060547,14.778042421252907,14.734662261166767,2.633472391939152e-38,257.0,-899.0,426.0,-6.5625,40.5625,-27.5625,10.4375,7.75,5.8125,232.875,14.0625,64.375,0.1021728515625,0.5291748046875,-0.7540283203125,-0.37542724609375,19.0,-41.0,15.0,238.0,-857.0,410.0,2557,6173,2109,
280,19.001754999160767,0.06681132316589355,14.967522758335207,14.735481012799424,2.633472391939152e-38,244.0,-860.0,459.0,-6.25,40.25,-27.5,-2.0625,-9.25,5.625,232.3125,13.875,64.1875,0.100830078125,0.52789306640625,-0.7568359375,-0.37200927734375,8.0,-3.0,45.0,235.0,-857.0,414.0,2529,6206,2147,
281,19.071605920791626,0.06985092163085938,14.31620337502048,14.733945382840432,2.633472391939152e-38,203.0,-844.0,371.0,-5.875,41.25,-27.0625,-8.25,-11.625,5.3125,231.4375,13.8125,64.9375,0.09930419921875,0.5335693359375,-0.756591796875,-0.36468505859375,-31.0,18.0,-31.0,234.0,-862.0,402.0,2473,6082,2246,
282,19.141066074371338,0.06946015357971191,14.396743290416254,14.732721725336916,2.633472391939152e-38,199.0,-848.0,394.0,-6.25,41.6875,-27.0625,-0.4375,-13.5,7.75,230.25,13.75,65.375,0.09552001953125,0.53741455078125,-0.75848388671875,-0.35601806640625,-33.0,17.0,-1.0,233.0,-866.0,396.0,2414,5959,2312,
283,19.211549043655396,0.07048296928405762,14.187824522117397,14.73072261674082,2.6327549271254177e-38,196.0,-871.0,439.0,-6.25,41.6875,-26.75,6.25,-13.125,6.875,229.0,13.625,65.3125,0.09063720703125,0.53765869140625,-0.7626953125,-0.34796142578125,-34.0,-5.0,42.0,231.0,-866.0,397.0,2697,5865,2333,
284,19.27819299697876,0.06664395332336426,15.005112243985332,14.731671170866893,2.6327549271254177e-38,172.0,-888.0,446.0,-5.875,41.6875,-27.5,4.125,-14.5,8.25,227.6875,13.375,65.0,0.08599853515625,0.5361328125,-0.76800537109375,-0.339599609375,-55.0,-23.0,44.0,227.0,-864.0,402.0,2355,5931,2284,
285,19.3451988697052,0.06700587272644043,14.924065000729426,14.732337564454467,2.6327549271254177e-38,183.0,-868.0,397.0,-7.375,41.25,-26.75,2.125,-12.4375,5.125,226.625,13.375,65.0625,0.0809326171875,0.5372314453125,-0.77093505859375,-0.33233642578125,-44.0,-3.0,-4.0,227.0,-865.0,401.0,2379,6053,2351,
286,19.412938117980957,0.06773924827575684,14.762490364952713,14.732442779235802,2.6327549271254177e-38,185.0,-868.0,405.0,-6.25,40.875,-27.5625,0.6875,-1.4375,3.375,225.875,13.1875,65.125,0.07977294921875,0.53759765625,-0.77301025390625,-0.3272705078125,-38.0,-2.0,4.0,224.0,-866.0,401.0,2251,6231,2281,
287,19.48283290863037,0.06989479064941406,14.307217901487242,14.730917282202155,2.6327549271254177e-38,206.0,-859.0,427.0,-6.5625,42.0625,-26.25,0.6875,4.5625,1.25,225.6875,12.8125,65.0625,0.08282470703125,0.53643798828125,-0.7738037109375,-0.326416015625,-11.0,7.0,25.0,217.0,-867.0,402.0,2218,6313,2281,
288,19.551979780197144,0.06914687156677246,14.461970257531299,14.72996613323503,2.6327549271254177e-38,182.0,-862.0,427.0,-7.0,42.375,-27.0625,2.25,3.8125,1.25,225.5625,12.4375,64.8125,0.08514404296875,0.53399658203125,-0.7755126953125,-0.32586669921875,-29.0,4.0,20.0,211.0,-866.0,407.0,2236,6493,2039,
289,19.61888599395752,0.06690621376037598,14.946294877505569,14.73070387834508,2.634118110271513e-38,192.0,-855.0,425.0,-5.875,42.375,-27.5625,1.9375,3.25,0.0625,225.625,12.3125,64.625,0.08648681640625,0.5322265625,-0.7762451171875,-0.32666015625,-17.0,10.0,14.0,209.0,-865.0,410.0,2492,6273,2277,
290,19.68527913093567,0.06639313697814941,15.061797732634762,14.731820568612678,2.634118110271513e-38,188.0,-857.0,418.0,-5.5,41.6875,-27.0625,0.875,7.25,-2.1875,225.8125,12.125,64.4375,0.08837890625,0.5306396484375,-0.7764892578125,-0.328125,-18.0,7.0,5.0,206.0,-865.0,413.0,2541,6125,2389,
291,19.751226902008057,0.0659477710723877,15.163514759313824,14.733261961079227,2.634118110271513e-38,204.0,-849.0,421.0,-4.75,40.5625,-26.75,3.25,7.1875,0.25,226.1875,12.0625,64.1875,0.090576171875,0.52813720703125,-0.77655029296875,-0.33148193359375,0.0,13.0,4.0,205.0,-863.0,417.0,2446,6080,2435,
292,19.817065000534058,0.06583809852600098,15.188774013652248,14.73477530563334,2.634118110271513e-38,214.0,-858.0,438.0,-5.875,41.25,-27.5625,4.9375,4.8125,-1.0,226.375,11.875,63.8125,0.092041015625,0.52508544921875,-0.7777099609375,-0.33319091796875,11.0,2.0,15.0,202.0,-861.0,423.0,2465,6106,2369,
293,19.883986949920654,0.06692194938659668,14.942780495277725,14.735475372114404,2.634118110271513e-38,181.0,-857.0,478.0,-4.75,40.875,-28.25,3.5,3.1875,1.625,226.375,11.75,63.4375,0.09283447265625,0.52239990234375,-0.77899169921875,-0.33416748046875,-19.0,1.0,49.0,200.0,-858.0,428.0,2627,5963,2433,
294,19.953042030334473,0.06905508041381836,14.481193766011366,14.734595334036475,2.6334006454577786e-38,209.0,-849.0,434.0,-5.0625,40.875,-27.5625,-1.75,-1.8125,-2.6875,226.5,11.875,63.4375,0.09234619140625,0.5225830078125,-0.77862548828125,-0.33477783203125,7.0,9.0,5.0,202.0,-858.0,428.0,2713,5862,2408,
295,20.01815414428711,0.06511211395263672,15.3581252288539,14.7366234605696,2.6334006454577786e-38,214.0,-864.0,448.0,-4.75,40.5625,-27.0625,3.0625,-1.1875,0.3125,226.5,12.0,63.4375,0.091064453125,0.52264404296875,-0.7786865234375,-0.33489990234375,9.0,-6.0,19.0,204.0,-858.0,428.0,2677,5851,2341,
296,20.0942440032959,0.07608985900878906,13.142355801769734,14.730586527736474,2.6334006454577786e-38,170.0,-859.0,465.0,-5.5,40.25,-27.0625,-1.4375,-1.375,1.9375,226.3125,11.875,63.3125,0.0908203125,0.5218505859375,-0.77978515625,-0.333740234375,-31.0,-2.0,34.0,202.0,-857.0,430.0,2637,5974,2205,
297,20.16232204437256,0.06807804107666016,14.689024304825944,14.730446192971842,2.6334006454577786e-38,185.0,-862.0,437.0,-4.375,41.6875,-28.0,-0.9375,0.125,2.5625,226.3125,11.875,63.4375,0.09130859375,0.52276611328125,-0.77923583984375,-0.3333740234375,-17.0,-3.0,9.0,202.0,-858.0,428.0,2617,6052,2081,
298,20.232295036315918,0.06997299194335938,14.291228261462138,14.728927166448763,2.6334006454577786e-38,209.0,-861.0,419.0,-4.75,40.875,-26.75,1.5,0.125,1.5,226.125,11.6875,63.5,0.0921630859375,0.52276611328125,-0.77972412109375,-0.3321533203125,10.0,-2.0,-7.0,199.0,-859.0,428.0,2753,5963,2074,
299,20.299320936203003,0.06702589988708496,14.91960572979472,14.729556763977548,2.6334006454577786e-38,206.0,-872.0,471.0,-4.375,41.25,-28.25,5.375,-3.0625,9.1875,225.75,11.5,63.1875,0.091796875,0.5205078125,-0.7821044921875,-0.33001708984375,10.0,-14.0,39.0,196.0,-857.0,432.0,2838,5893,2030,
300,20.36770796775818,0.06838703155517578,14.622655454684907,14.729197829961828,2.6349073215666206e-38,166.0,-844.0,375.0,-4.375,40.875,-28.25,-4.8125,-5.625,3.0625,225.125,11.1875,63.375,0.0927734375,0.52154541015625,-0.783203125,-0.3255615234375,-24.0,16.0,-55.0,190.0,-860.0,430.0,2946,5855,2038,
301,20.43444585800171,0.06673789024353027,14.983991797627171,14.730029974467577,2.6349073215666206e-38,231.0,-843.0,362.0,-4.375,40.875,-27.5625,2.5625,-2.0,1.875,224.9375,11.1875,63.5,0.0919189453125,0.5223388671875,-0.78338623046875,-0.3240966796875,45.0,35.0,-37.0,190.0,-860.0,429.0,2897,6035,2053,
302,20.50147271156311,0.06702685356140137,14.919393450028634,14.730649073306225,2.6349073215666206e-38,202.0,-840.0,462.0,-4.75,40.875,-29.5625,7.1875,-0.75,13.4375,224.0625,10.625,63.0,0.09246826171875,0.51849365234375,-0.7879638671875,-0.3189697265625,21.0,18.0,25.0,181.0,-859.0,436.0,2866,5993,2156,
303,20.57708191871643,0.07560920715332031,13.225902474710526,14.725119975558746,2.6349073215666206e-38,167.0,-853.0,430.0,-3.6875,40.25,-27.0625,-9.6875,-4.0625,9.4375,223.1875,9.8125,63.3125,0.09735107421875,0.51934814453125,-0.78924560546875,-0.3128662109375,0.0,10.0,-2.0,168.0,-863.0,433.0,2801,5912,2187,
304,20.644892930984497,0.0678110122680664,14.74686730890936,14.725191407689373,2.6349073215666206e-38,205.0,-895.0,389.0,-3.25,41.25,-28.75,-8.5,-4.875,8.875,222.6875,9.5625,63.875,0.09857177734375,0.52301025390625,-0.78851318359375,-0.30828857421875,41.0,-26.0,-35.0,162.0,-869.0,423.0,2636,5887,2232,
305,20.713551998138428,0.06865906715393066,14.564718710174771,14.724659489951845,2.634118110271513e-38,147.0,-874.0,427.0,-3.25,41.6875,-27.0625,7.0,-12.0625,16.625,221.3125,8.875,63.875,0.09967041015625,0.5224609375,-0.7923583984375,-0.29876708984375,-4.0,-3.0,1.0,151.0,-870.0,425.0,2517,5886,2263,
306,20.783583879470825,0.07003188133239746,14.27921085332017,14.723158516575877,2.634118110271513e-38,123.0,-888.0,435.0,-2.875,40.875,-27.5625,1.875,-21.625,18.75,219.625,8.375,63.9375,0.09716796875,0.52294921875,-0.7965087890625,-0.2874755859375,-19.0,-16.0,9.0,141.0,-872.0,425.0,2442,5907,2253,
307,20.853883028030396,0.07029914855957031,14.224923352416095,14.721478948901321,2.634118110271513e-38,140.0,-877.0,408.0,-2.875,40.5625,-27.5625,-0.9375,-44.25,13.1875,216.5,8.3125,64.25,0.083740234375,0.52752685546875,-0.80279541015625,-0.2650146484375,-1.0,-3.0,-12.0,142.0,-874.0,421.0,2348,5930,2262,
308,20.920126914978027,0.06624388694763184,15.095732543450172,14.722664028366077,2.634118110271513e-38,151.0,-863.0,398.0,-3.25,40.875,-27.5625,-3.0,-46.6875,17.875,213.5,8.75,64.9375,0.06671142578125,0.53509521484375,-0.8062744140625,-0.24310302734375,-6.0,17.0,-14.0,149.0,-878.0,410.0,2328,6014,2137,
309,20.987273931503296,0.06714701652526855,14.892694444937597,14.723208026373088,2.634118110271513e-38,119.0,-910.0,400.0,-5.0625,41.25,-27.0625,2.75,-54.0,19.4375,210.3125,8.9375,65.5,0.05023193359375,0.541259765625,-0.81011962890625,-0.2196044921875,-33.0,-28.0,-1.0,153.0,-881.0,401.0,2450,5910,2144,
310,21.05635380744934,0.06907987594604492,14.475995885995127,14.722396994028845,2.634118110271513e-38,120.0,-911.0,418.0,-4.75,41.25,-26.75,7.1875,-61.4375,12.875,205.8125,9.5,65.6875,0.02374267578125,0.5447998046875,-0.8170166015625,-0.18743896484375,-38.0,-38.0,25.0,162.0,-881.0,397.0,2373,5995,1986,
311,21.12901210784912,0.07265830039978027,13.763052459220807,14.719098006691379,2.6346920821225003e-38,98.0,-884.0,416.0,-5.875,41.25,-27.0625,9.375,-63.9375,17.8125,202.0625,9.875,65.6875,0.00152587890625,0.5455322265625,-0.82257080078125,-0.16046142578125,-70.0,-3.0,19.0,169.0,-880.0,396.0,2262,6167,1705,
312,21.196675777435303,0.06766366958618164,14.778979711207109,14.719289160054819,2.6346920821225003e-38,190.0,-834.0,325.0,-8.0625,40.5625,-26.25,2.75,-47.125,11.0625,197.75,10.75,66.1875,-0.027587890625,0.54901123046875,-0.8253173828125,-0.12921142578125,2.0,58.0,-76.0,183.0,-881.0,387.0,2197,6291,1712,
313,21.266403913497925,0.06972813606262207,14.341413043106602,14.718050182491684,2.6346920821225003e-38,135.0,-749.0,344.0,-8.375,41.25,-27.0625,23.5,-47.75,18.75,194.1875,10.9375,65.6875,-0.046630859375,0.5440673828125,-0.831298828125,-0.10369873046875,-32.0,133.0,-32.0,186.0,-877.0,393.0,2176,6208,2011,
314,21.337557077407837,0.07115316390991211,14.054188809736026,14.715836440923342,2.6346920821225003e-38,262.0,-832.0,468.0,-9.875,41.0,-26.0,21.3125,-29.5625,21.8125,191.375,10.9375,64.9375,-0.060302734375,0.537109375,-0.83721923828125,-0.08343505859375,75.0,39.0,60.0,186.0,-872.0,407.0,2181,6133,1873,
315,21.404305934906006,0.06674885749816895,14.981529834086404,14.716664999928822,2.6346920821225003e-38,162.0,-827.0,538.0,-9.6875,40.5625,-28.0,3.6875,-25.125,26.9375,188.125,9.9375,64.4375,-0.06500244140625,0.532470703125,-0.841796875,-0.06011962890625,-5.0,37.0,102.0,170.0,-871.0,416.0,2199,6106,1956,
316,21.47286891937256,0.06856298446655273,14.58512939278238,14.716245006036836,2.6336876313832723e-38,280.0,-896.0,458.0,-9.6875,40.5625,-27.0625,0.375,-12.5,23.4375,185.625,9.25,64.8125,-0.06951904296875,0.53436279296875,-0.84136962890625,-0.04144287109375,126.0,-21.0,39.0,158.0,-876.0,411.0,2280,6020,2230,
317,21.53914189338684,0.06627297401428223,15.08910705870079,14.717392251235806,2.6336876313832723e-38,199.0,-888.0,479.0,-8.875,42.375,-28.0,20.4375,-11.375,33.5625,183.25,7.8125,64.3125,-0.06585693359375,0.53045654296875,-0.84478759765625,-0.02423095703125,65.0,-12.0,58.0,134.0,-875.0,420.0,2315,5972,2132,
318,21.61206579208374,0.07292389869689941,13.71292563712749,14.714002958314142,2.6336876313832723e-38,145.0,-879.0,512.0,-8.875,41.25,-28.0,28.125,-24.9375,17.875,179.9375,6.6875,62.5,-0.068603515625,0.51611328125,-0.853759765625,0.00042724609375,39.0,-21.0,79.0,114.0,-864.0,448.0,2327,5998,1890,
319,21.678478956222534,0.06641316413879395,15.05725578606892,14.715054531463569,2.6336876313832723e-38,170.0,-885.0,556.0,-6.6875,39.875,-28.5,10.8125,-25.875,12.5,178.0,6.6875,61.625,-0.07684326171875,0.50830078125,-0.85760498046875,0.0146484375,55.0,-28.0,94.0,114.0,-857.0,462.0,2391,5982,1920,
320,21.748065948486328,0.06958699226379395,14.370501834727223,14.713952070863208,2.6336876313832723e-38,155.0,-832.0,509.0,-7.875,39.875,-30.0625,2.5625,-32.9375,14.5,175.1875,6.8125,61.4375,-0.09075927734375,0.504638671875,-0.8577880859375,0.03582763671875,43.0,40.0,41.0,117.0,-855.0,465.0,2446,5769,2250,
321,21.8175048828125,0.06943893432617188,14.40114266879086,14.712956487195699,2.6336876313832723e-38,197.0,-831.0,604.0,-7.875,38.75,-29.1875,-3.875,-41.75,29.75,172.0625,6.875,61.6875,-0.1051025390625,0.50384521484375,-0.8553466796875,0.0589599609375,70.0,7.0,148.0,118.0,-857.0,461.0,2430,5678,2256,
322,21.88598108291626,0.06847620010375977,14.603614080289683,14.712614379957884,2.635266053973488e-38,155.0,-813.0,608.0,-8.5,39.875,-28.0625,-17.1875,-49.0,32.6875,168.375,6.4375,62.6875,-0.11773681640625,0.50836181640625,-0.84869384765625,0.08612060546875,45.0,52.0,162.0,110.0,-866.0,446.0,2453,5601,2220,
323,21.95389699935913,0.0679159164428711,14.724089026188302,14.712649877578858,2.635266053973488e-38,317.0,-716.0,710.0,-8.875,41.25,-27.6875,-29.625,-65.3125,40.0,163.5,6.0,65.0,-0.13873291015625,0.5203857421875,-0.8338623046875,0.12078857421875,214.0,193.0,299.0,103.0,-883.0,411.0,2503,5522,2255,
324,22.031330823898315,0.07743382453918457,12.914252988937161,14.706329027048312,2.635266053973488e-38,-25.0,-1172.0,303.0,-9.6875,40.875,-26.875,-77.5,-17.125,17.4375,158.75,5.0,69.0,-0.1563720703125,0.54522705078125,-0.8094482421875,0.151611328125,-111.0,-259.0,-46.0,86.0,-912.0,349.0,2541,5459,2260,
325,22.10205602645874,0.0707252025604248,14.139231331937717,14.704514349748145,2.635266053973488e-38,76.0,-713.0,433.0,-8.875,44.1875,-24.0625,-35.875,-56.625,-86.25,160.75,10.0625,72.5625,-0.20477294921875,0.5576171875,-0.793212890625,0.13421630859375,-36.0,225.0,198.0,171.0,-921.0,288.0,2652,5329,2173,
326,22.1685688495636,0.0665128231048584,15.034694865131284,14.705504997288875,2.635266053973488e-38,307.0,-851.0,518.0,-12.5625,44.1875,-21.6875,-62.6875,-48.4375,-56.3125,163.125,15.5,77.125,-0.25787353515625,0.57122802734375,-0.7708740234375,0.11395263671875,15.0,76.0,298.0,262.0,-921.0,210.0,2825,5104,2188,
327,22.236990928649902,0.06842207908630371,14.615165358226793,14.705227026858957,2.6345485891597535e-38,121.0,-916.0,-69.0,-19.5625,44.5625,-16.875,-58.4375,-29.1875,-61.75,165.25,19.0,81.375,-0.293212890625,0.58612060546875,-0.74908447265625,0.0965576171875,-198.0,0.0,-207.0,319.0,-916.0,138.0,2920,4982,2087,
328,22.30752396583557,0.07053303718566895,14.17775328981838,14.703559234200027,2.6345485891597535e-38,565.0,-1043.0,117.0,-22.0625,44.1875,-12.875,-25.0625,14.625,34.1875,168.125,19.4375,80.375,-0.28125,0.5850830078125,-0.756591796875,0.07861328125,198.0,-202.0,91.0,327.0,-911.0,154.0,2735,4991,2222,
329,22.376049995422363,0.06852602958679199,14.592994895953295,14.703220633995098,2.6345485891597535e-38,210.0,-1026.0,39.0,-21.0625,43.75,-16.0625,0.875,-26.8125,73.1875,164.1875,16.1875,80.5,-0.26715087890625,0.5911865234375,-0.75384521484375,0.1043701171875,-63.0,-98.0,-116.0,273.0,-928.0,155.0,2874,4883,2102,
330,22.44621181488037,0.07016181945800781,14.252766073127633,14.701812614154855,2.6345485891597535e-38,169.0,-990.0,139.0,-17.1875,44.5625,-16.0625,-10.375,-14.125,76.25,158.8125,12.125,80.9375,-0.25323486328125,0.59918212890625,-0.74658203125,0.139404296875,-31.0,80.0,-50.0,206.0,-946.0,150.0,2899,4821,2083,
331,22.51777172088623,0.07155990600585938,13.97430566661336,14.69950064788084,2.6345485891597535e-38,247.0,-909.0,118.0,-14.25,46.6875,-14.0625,-35.0625,-13.6875,26.5,155.1875,9.375,83.375,-0.2476806640625,0.6181640625,-0.72869873046875,0.159912109375,68.0,90.0,9.0,160.0,-961.0,110.0,2831,4790,2140,
332,22.588594913482666,0.07082319259643555,14.119668477785185,14.697682670020173,2.6345485891597535e-38,-53.0,-801.0,37.0,-12.0625,49.25,-12.375,-64.5625,19.9375,34.625,153.5,6.6875,86.5625,-0.23431396484375,0.64471435546875,-0.70831298828125,0.16644287109375,-168.0,170.0,-20.0,115.0,-972.0,57.0,2848,4707,2065,
333,22.654181003570557,0.06558609008789062,15.247135462106671,14.69927339008704,2.6341898567528863e-38,-13.0,-1224.0,-228.0,-10.5625,50.375,-10.0625,-45.5625,53.3125,-37.875,157.375,7.625,90.3125,-0.22998046875,0.6708984375,-0.69134521484375,0.1380615234375,-143.0,-309.0,-250.0,130.0,-971.0,-5.0,2881,4629,1968,
334,22.72741389274597,0.07323288917541504,13.65506688674669,14.695908719583997,2.6341898567528863e-38,210.0,-891.0,-183.0,-10.6875,49.6875,-8.5,13.4375,-23.75,-25.125,160.125,9.8125,89.1875,-0.23773193359375,0.660888671875,-0.701171875,0.122802734375,42.0,74.0,-196.0,167.0,-966.0,13.0,2924,4570,1903,
335,22.796649932861328,0.06923604011535645,14.443344800393943,14.695141653997947,2.6341898567528863e-38,65.0,-842.0,-188.0,-13.5625,50.0,-10.5,4.125,-31.0,35.6875,157.75,9.125,89.3125,-0.24371337890625,0.65936279296875,-0.69793701171875,0.13690185546875,-92.0,100.0,-191.0,156.0,-968.0,11.0,2988,4517,1847,
336,22.863472938537598,0.06682300567626953,14.964906021207666,14.695930093527224,2.6341898567528863e-38,142.0,-923.0,-116.0,-12.875,48.875,-10.1875,4.9375,-38.625,24.375,152.4375,6.625,89.25,-0.24493408203125,0.65875244140625,-0.69097900390625,0.16912841796875,26.0,35.0,-112.0,113.0,-974.0,11.0,2971,4469,1824,
337,22.92933487892151,0.06586194038391113,15.183275715397563,14.697329939116443,2.6341898567528863e-38,155.0,-895.0,58.0,-11.0,51.75,-9.6875,22.8125,7.9375,17.0,150.8125,5.625,88.3125,-0.2408447265625,0.65380859375,-0.6942138671875,0.18060302734375,58.0,79.0,29.0,96.0,-975.0,28.0,2938,4432,1842,
338,23.00181484222412,0.0724799633026123,13.796916477797916,14.694492687574284,2.633328898976405e-38,63.0,-1003.0,-169.0,-11.0,50.5625,-13.25,50.0,20.75,-22.625,152.6875,5.625,85.75,-0.2252197265625,0.6424560546875,-0.7119140625,0.17254638671875,-33.0,-30.0,-241.0,102.0,-972.0,80.0,2989,4380,1709,
339,23.06920099258423,0.06738615036010742,14.839844606882302,14.694917266921127,2.633328898976405e-38,295.0,-907.0,231.0,-10.5625,49.5625,-14.5625,59.0625,3.125,-48.375,156.25,9.3125,81.25,-0.23712158203125,0.60736083984375,-0.74200439453125,0.15594482421875,156.0,75.0,66.0,159.0,-956.0,146.0,3020,4311,1650,
342,23.21737504005432,0.042762041091918945,23.38522611328245,14.730347397584177,2.633328898976405e-38,60.0,-1025.0,313.0,-12.5,46.6875,-23.0,-9.3125,-41.75,134.6875,145.6875,1.9375,78.9375,-0.20849609375,0.6009521484375,-0.7374267578125,0.22723388671875,26.0,-63.0,126.0,33.0,-962.0,187.0,3096,4156,1396,
343,23.290260076522827,0.07288503646850586,13.720237355332971,14.727186337680818,2.633328898976405e-38,3.0,-1047.0,244.0,-5.75,47.0625,-24.5625,5.3125,-50.375,101.625,137.0,-3.875,79.1875,-0.191650390625,0.6082763671875,-0.7166748046875,0.2821044921875,70.0,-85.0,61.0,-67.0,-961.0,182.0,3129,4004,1225,
344,23.358736038208008,0.06847596168518066,14.60366492693474,14.726824235580102,2.633328898976405e-38,-270.0,-960.0,46.0,-4.1875,47.5,-24.1875,-17.5625,-64.8125,123.75,123.625,-12.1875,78.5,-0.1719970703125,0.61102294921875,-0.68109130859375,0.3648681640625,-63.0,62.0,-66.0,-207.0,-939.0,190.0,3153,3927,1138,
345,23.430521965026855,0.07178592681884766,13.930307015795837,14.72438388333636,2.633328898976405e-38,-299.0,-1079.0,96.0,-0.5,46.75,-26.1875,-10.5,-61.0,112.75,112.8125,-18.25,78.375,-0.16357421875,0.614501953125,-0.64300537109375,0.4267578125,8.0,-167.0,-91.0,-308.0,-911.0,187.0,3142,3863,1082,
346,23.498169898986816,0.06764793395996094,14.782417458482533,14.724550953856141,2.633328898976405e-38,-321.0,-996.0,58.0,3.375,48.1875,-27.375,17.3125,-37.25,20.25,106.3125,-21.625,76.75,-0.15838623046875,0.6070556640625,-0.62335205078125,0.46673583984375,18.0,-60.0,-128.0,-362.0,-885.0,213.0,3111,3817,1064,
347,23.565614938735962,0.06744503974914551,14.826887251003058,14.724843841423336,2.633328898976405e-38,-310.0,-760.0,280.0,2.75,48.0,-28.6875,-14.125,-13.5625,-36.875,106.4375,-20.25,75.6875,-0.17236328125,0.59625244140625,-0.62921142578125,0.46783447265625,24.0,133.0,55.0,-334.0,-893.0,225.0,3077,3790,1105,
348,23.6357479095459,0.07013297080993652,14.258628836785547,14.723460468938718,2.633328898976405e-38,-291.0,-794.0,18.0,-4.25,48.0625,-28.875,5.25,41.5,-54.6875,111.1875,-17.125,77.4375,-0.1826171875,0.60235595703125,-0.64111328125,0.43902587890625,-2.0,120.0,-185.0,-289.0,-914.0,203.0,3021,3710,1102,
349,23.70122504234314,0.06547713279724121,15.272507473664662,14.724977269170612,2.633328898976405e-38,-363.0,-753.0,89.0,-6.875,47.5625,-27.75,-12.9375,53.25,-44.625,116.1875,-14.8125,78.6875,-0.18353271484375,0.609619140625,-0.65478515625,0.4073486328125,-112.0,175.0,-95.0,-246.0,-931.0,180.0,2963,3727,1178,
350,23.76526975631714,0.06404471397399902,15.614091123991617,14.727373330444319,2.6349073215666206e-38,-294.0,-797.0,70.0,-8.5625,47.5,-27.75,-2.375,68.375,-8.0,121.375,-13.6875,80.1875,-0.17510986328125,0.6219482421875,-0.66351318359375,0.377197265625,-61.0,142.0,-88.0,-232.0,-939.0,158.0,2915,3739,1214,
351,23.832685947418213,0.06741619110107422,14.833231953148209,14.727672775716819,2.6349073215666206e-38,-233.0,-897.0,-13.0,-9.25,47.0625,-25.0,-7.5625,72.375,24.0625,123.875,-15.625,82.125,-0.139892578125,0.64398193359375,-0.66375732421875,0.35369873046875,30.0,38.0,-142.0,-264.0,-935.0,128.0,2846,3731,1229,
352,23.89924192428589,0.06655597686767578,15.024946624826262,14.72850064094733,2.6349073215666206e-38,-433.0,-830.0,-9.0,-7.25,47.5,-24.1875,25.625,82.0,-2.8125,127.375,-16.75,82.6875,-0.1083984375,0.65399169921875,-0.67120361328125,0.3316650390625,-150.0,101.0,-128.0,-282.0,-931.0,118.0,2795,3732,1211,
353,23.964757919311523,0.06551599502563477,15.263448255784333,14.729963106180262,2.6349073215666206e-38,-293.0,-826.0,100.0,-5.875,46.0,-25.25,-0.3125,81.875,-3.1875,133.0,-16.9375,83.3125,-0.074462890625,0.660400390625,-0.68310546875,0.29693603515625,-4.0,93.0,-5.0,-284.0,-931.0,113.0,2744,3678,1210,
354,24.03522276878357,0.0704648494720459,14.191472876085683,14.72838439674325,2.6349073215666206e-38,-353.0,-796.0,69.0,-2.5,44.875,-22.6875,-10.25,73.1875,10.625,137.0,-17.6875,85.5,-0.04412841796875,0.67913818359375,-0.6817626953125,0.2684326171875,-55.0,135.0,-3.0,-298.0,-931.0,72.0,2700,3643,1164,
355,24.102394819259644,0.06717205047607422,14.88714417548094,14.728826851526307,2.6349073215666206e-38,-500.0,-810.0,-72.0,-1.25,43.75,-21.875,-3.25,78.9375,18.125,140.125,-19.5625,87.875,-0.0091552734375,0.69287109375,-0.67681884765625,0.2449951171875,-124.0,136.0,-90.0,-325.0,-924.0,38.0,2665,3607,1105,
356,24.17251682281494,0.07012200355529785,14.26085892157096,14.727469324335878,2.63677273008233e-38,-539.0,-819.0,23.0,1.5,44.5,-19.0,-15.875,61.3125,51.25,141.375,-21.6875,90.375,0.03009033203125,0.70867919921875,-0.665283203125,0.23284912109375,-224.0,100.0,45.0,-355.0,-914.0,0.0,2569,3523,1036,
357,24.241451740264893,0.06893491744995117,14.506436461986484,14.726840777733841,2.63677273008233e-38,-524.0,-824.0,-9.0,8.0,43.0,-17.1875,29.6875,83.75,70.0625,142.0,-25.5,92.1875,0.0821533203125,0.7147216796875,-0.65673828125,0.22613525390625,-80.0,38.0,9.0,-422.0,-884.0,-34.0,2489,3493,954,
358,24.31416392326355,0.07271218299865723,13.75285349387003,14.723928041690513,2.63677273008233e-38,-481.0,-645.0,-23.0,12.1875,42.25,-16.375,31.4375,59.5625,41.75,144.6875,-29.25,92.375,0.14544677734375,0.70526123046875,-0.6612548828125,0.21026611328125,-2.0,208.0,13.0,-479.0,-854.0,-36.0,2451,3472,897,
359,24.385804891586304,0.0716409683227539,13.958493630276488,14.721679337468322,2.63677273008233e-38,-645.0,-540.0,-104.0,18.6875,40.375,-14.5625,47.5625,68.5,-2.0625,148.125,-30.75,92.375,0.18450927734375,0.69561767578125,-0.667724609375,0.19049072265625,-143.0,301.0,-69.0,-501.0,-842.0,-35.0,2390,3431,807,
360,24.453856706619263,0.06805181503295898,14.694685211785727,14.721604216424227,2.63677273008233e-38,-240.0,-783.0,-22.0,20.0,39.375,-15.25,29.6875,52.1875,-83.4375,157.1875,-27.0,91.9375,0.193359375,0.69140625,-0.682373046875,0.13763427734375,205.0,89.0,7.0,-445.0,-873.0,-30.0,2274,3246,480,
361,24.521153926849365,0.06729722023010254,14.859454767682852,14.721982541152931,2.63677273008233e-38,-259.0,-803.0,-36.0,20.0625,39.6875,-15.0,0.1875,-3.375,-33.8125,161.6875,-23.5625,91.9375,0.17950439453125,0.69549560546875,-0.68695068359375,0.1104736328125,133.0,94.0,-5.0,-392.0,-898.0,-31.0,2259,3359,561,
362,24.58568000793457,0.06452608108520508,15.49760938804768,14.724018204221776,2.63677273008233e-38,-406.0,-710.0,-117.0,17.6875,40.6875,-12.375,-15.25,-41.1875,-23.9375,161.5625,-22.1875,91.375,0.16143798828125,0.69671630859375,-0.68994140625,0.11163330078125,-35.0,197.0,-94.0,-370.0,-907.0,-22.0,2303,3450,541,
363,24.653584957122803,0.06790494918823242,14.726467097825248,14.724024949366386,2.63677273008233e-38,-274.0,-1045.0,-66.0,16.6875,42.1875,-10.5,4.9375,-52.75,-47.375,160.3125,-19.375,91.125,0.1190185546875,0.70367431640625,-0.690185546875,0.11962890625,52.0,-120.0,-48.0,-326.0,-924.0,-18.0,2412,3542,465,
364,24.719368934631348,0.06578397750854492,15.201269942519154,14.7252950090503,2.63677273008233e-38,-373.0,-1076.0,-42.0,14.75,42.75,-8.75,51.375,-27.0625,-53.625,162.0,-16.5,88.625,0.09228515625,0.693115234375,-0.70611572265625,0.11151123046875,-94.0,-136.0,-64.0,-279.0,-939.0,21.0,2399,3607,347,
365,24.78726291656494,0.06789398193359375,14.728845937745815,14.725304735283062,2.63677273008233e-38,-371.0,-1296.0,29.0,12.0,43.5625,-8.875,-6.875,-35.625,-1.5625,162.3125,-14.5,86.75,0.06842041015625,0.68414306640625,-0.71746826171875,0.111572265625,-125.0,-348.0,-23.0,-245.0,-947.0,53.0,2423,3650,199,
366,24.856334924697876,0.06907200813293457,14.477644809101546,14.72461652567826,2.63677273008233e-38,-340.0,-1242.0,98.0,11.5625,43.0625,-6.875,-50.5,-43.25,-56.6875,161.3125,-12.1875,88.625,0.0352783203125,0.69818115234375,-0.70562744140625,0.11572265625,-132.0,-284.0,76.0,-207.0,-958.0,22.0,2366,3337,-197,
367,24.924912929534912,0.06857800483703613,14.581934869297065,14.724223953662094,2.636485744156836e-38,-356.0,-1299.0,-5.0,10.0625,43.375,-4.0625,-23.4375,-23.8125,-55.0,162.75,-8.0,90.9375,-0.0072021484375,0.71307373046875,-0.69317626953125,0.1048583984375,-219.0,-328.0,11.0,-136.0,-970.0,-16.0,2316,3363,-179,
368,24.996920824050903,0.07200789451599121,13.88736619396536,14.72181324213049,2.636485744156836e-38,-242.0,-2367.0,-182.0,5.875,42.5625,-0.5625,-26.0625,2.0,-37.6875,165.125,-5.0,91.4375,-0.030029296875,0.7154541015625,-0.69219970703125,0.0902099609375,-156.0,-1390.0,-157.0,-85.0,-976.0,-25.0,2265,3474,-100,
369,25.065299034118652,0.06837821006774902,14.624541926575755,14.72154788569331,2.636485744156836e-38,-16.0,-1106.0,52.0,3.875,42.5625,0.6875,-0.0625,5.1875,5.75,167.0625,-3.5625,92.0625,-0.03594970703125,0.718994140625,-0.68963623046875,0.0780029296875,45.0,-128.0,88.0,-61.0,-978.0,-35.0,2263,3490,-128,
370,25.13419198989868,0.0688929557800293,14.51527211567079,14.720982482695339,2.636485744156836e-38,-101.0,-1081.0,-88.0,3.75,41.1875,0.25,-13.625,11.5625,19.1875,166.6875,-4.6875,92.8125,-0.0245361328125,0.72412109375,-0.68463134765625,0.079833984375,-20.0,-105.0,-39.0,-80.0,-976.0,-48.0,2307,3512,-134,
371,25.198789834976196,0.06459784507751465,15.480392554891619,14.722929252937693,2.636485744156836e-38,-113.0,-955.0,-96.0,5.25,43.0625,1.375,-8.875,-12.3125,11.75,165.5,-5.5625,93.4375,-0.02105712890625,0.7276611328125,-0.68011474609375,0.08642578125,-18.0,18.0,-38.0,-95.0,-974.0,-58.0,2348,3328,-166,
372,25.269564867019653,0.07077503204345703,14.129276541845769,14.721266549607764,2.637992420265678e-38,-121.0,-972.0,-98.0,4.375,42.6875,2.25,-2.5625,-5.1875,6.5,164.0625,-6.1875,93.8125,-0.02166748046875,0.73004150390625,-0.676513671875,0.09454345703125,-14.0,0.0,-33.0,-106.0,-972.0,-65.0,2395,3331,-21,
373,25.345624923706055,0.07606005668640137,13.14750532099969,14.71654382650983,2.637992420265678e-38,-124.0,-957.0,-90.0,4.375,42.6875,2.25,4.125,5.8125,1.6875,163.9375,-6.5625,93.875,-0.01763916015625,0.73052978515625,-0.67596435546875,0.0950927734375,-11.0,14.0,-24.0,-112.0,-971.0,-66.0,2407,3352,94,
374,25.410173892974854,0.06454896926879883,15.492114147256757,14.718513992672822,2.637992420265678e-38,-122.0,-967.0,-85.0,6.25,42.0,1.375,6.5,-2.3125,-3.5,164.125,-6.5625,93.6875,-0.01702880859375,0.72930908203125,-0.67742919921875,0.09442138671875,-10.0,4.0,-29.0,-112.0,-972.0,-63.0,2407,3429,275,
375,25.47670888900757,0.06653499603271484,15.029684521335302,14.719326645907596,2.637992420265678e-38,-112.0,-965.0,-66.0,5.1875,43.0625,-0.0625,8.9375,-3.3125,-7.875,164.25,-6.1875,93.1875,-0.02081298828125,0.72625732421875,-0.6806640625,0.09405517578125,-6.0,7.0,-11.0,-106.0,-973.0,-54.0,2423,3449,427,
376,25.54379391670227,0.06708502769470215,14.906455797423368,14.719818098522381,2.637992420265678e-38,-98.0,-970.0,-52.0,5.5625,42.6875,0.6875,9.875,1.8125,-10.625,164.9375,-5.5625,92.5625,-0.02423095703125,0.722412109375,-0.68511962890625,0.09039306640625,-3.0,4.0,-8.0,-95.0,-975.0,-44.0,2396,3325,334,
377,25.614482879638672,0.07068896293640137,14.146479994333724,14.71823584225793,2.637992420265678e-38,-79.0,-975.0,-43.0,5.875,42.6875,1.375,9.6875,-0.6875,-13.125,165.875,-4.75,91.875,-0.02850341796875,0.71832275390625,-0.68988037109375,0.08538818359375,1.0,1.0,-10.0,-81.0,-976.0,-32.0,2443,3260,291,
378,25.681030988693237,0.06654810905456543,15.026722985923769,14.719035235245213,2.638279406191172e-38,-60.0,-973.0,-25.0,4.0625,41.1875,-0.5625,9.125,-1.125,-14.375,166.75,-3.8125,91.25,-0.03448486328125,0.71417236328125,-0.6944580078125,0.08050537109375,5.0,4.0,-3.0,-65.0,-978.0,-22.0,2479,3352,429,
379,25.751370906829834,0.07033991813659668,14.216678473495646,14.717663046804269,2.638279406191172e-38,-45.0,-978.0,-22.0,3.25,41.5625,-0.0625,8.5625,1.1875,-14.5625,167.75,-2.8125,90.6875,-0.04010009765625,0.710205078125,-0.6988525390625,0.07464599609375,3.0,1.0,-10.0,-48.0,-979.0,-11.0,2467,3428,563,
380,25.820124864578247,0.06875395774841309,14.544617251842219,14.717202259595155,2.638279406191172e-38,-26.0,-977.0,-6.0,3.0,42.375,-0.875,7.4375,1.0,-14.25,168.6875,-2.0,90.1875,-0.04461669921875,0.70709228515625,-0.70233154296875,0.06927490234375,5.0,2.0,-8.0,-34.0,-980.0,-3.0,2481,3482,658,
381,25.88961696624756,0.06949210166931152,14.3901245750006,14.71632432788449,2.638279406191172e-38,-7.0,-979.0,6.0,2.25,42.375,-1.25,5.4375,0.1875,-12.5,169.625,-1.0625,89.75,-0.04986572265625,0.70404052734375,-0.70550537109375,0.0638427734375,11.0,1.0,2.0,-19.0,-980.0,3.0,2500,3524,733,
382,25.95445489883423,0.06483793258666992,15.423070417356131,14.718089880483598,2.638279406191172e-38,7.0,-977.0,3.0,1.875,41.1875,-0.875,3.25,0.3125,-9.5,170.375,-0.3125,89.4375,-0.05438232421875,0.701904296875,-0.70770263671875,0.059326171875,13.0,3.0,-5.0,-6.0,-980.0,8.0,2521,3563,814,
383,26.021764993667603,0.06731009483337402,14.856612555300918,14.718448194932321,2.638279406191172e-38,15.0,-980.0,11.0,1.5,40.875,-1.375,0.9375,0.5,-6.375,170.9375,0.125,89.375,-0.0576171875,0.70086669921875,-0.708740234375,0.0560302734375,12.0,0.0,0.0,3.0,-980.0,10.0,2487,3396,615,
384,26.089131832122803,0.0673668384552002,14.844098712826085,14.718772647205983,2.638279406191172e-38,20.0,-978.0,11.0,0.0,42.375,-1.0,-0.875,0.0,-3.25,171.1875,0.4375,89.375,-0.05938720703125,0.70074462890625,-0.7088623046875,0.05426025390625,12.0,1.0,0.0,7.0,-980.0,10.0,2495,3199,276,
385,26.153553009033203,0.06442117691040039,15.52284587086698,14.720753232534962,2.638279406191172e-38,19.0,-978.0,-1.0,-0.6875,42.0,-1.75,-2.3125,0.0625,0.0625,171.3125,0.5625,89.4375,-0.06005859375,0.701416015625,-0.70819091796875,0.0535888671875,10.0,1.0,-10.0,9.0,-980.0,8.0,2467,3092,36,
386,26.223904848098755,0.07035183906555176,14.214269495758733,14.719394469888995,2.638279406191172e-38,14.0,-976.0,-3.0,0.75,42.0,-0.6875,-2.75,-0.0625,2.5625,171.25,0.4375,89.625,-0.0595703125,0.70257568359375,-0.70703125,0.0540771484375,5.0,3.0,-8.0,8.0,-980.0,5.0,2500,3050,-33,
387,26.292670965194702,0.06876611709594727,14.542045446665696,14.718930629463122,2.638279406191172e-38,4.0,-976.0,-6.0,-0.375,41.1875,-2.1875,-2.0625,0.0625,3.75,171.0,0.25,89.8125,-0.05828857421875,0.703857421875,-0.70574951171875,0.0552978515625,0.0,4.0,-9.0,4.0,-980.0,2.0,2452,2993,-172,
388,26.364222049713135,0.07155108451843262,13.976028549817231,14.716914433066755,2.638279406191172e-38,-3.0,-978.0,-17.0,1.0625,41.5625,-1.75,-1.25,-0.125,3.5,170.75,0.0,90.0,-0.05682373046875,0.704833984375,-0.704833984375,0.0567626953125,-3.0,2.0,-16.0,0.0,-980.0,0.0,2415,2923,-282,
389,26.431144952774048,0.06692290306091309,14.942567555531806,14.717485780318912,2.6385663921166656e-38,-8.0,-977.0,-12.0,0.75,41.5625,-1.0,-0.1875,-0.25,2.25,170.5625,-0.125,90.0,-0.0556640625,0.70526123046875,-0.70440673828125,0.05792236328125,-6.0,1.0,-11.0,-3.0,-980.0,0.0,2443,2881,-286,
390,26.500727891921997,0.06958293914794922,14.371338897797514,14.71657690273785,2.6385663921166656e-38,-10.0,-977.0,-17.0,1.5,41.1875,-0.6875,0.75,-0.125,0.375,170.5,-0.1875,90.0,-0.0552978515625,0.70526123046875,-0.704345703125,0.05828857421875,-6.0,2.0,-14.0,-4.0,-980.0,0.0,2484,2884,-287,
391,26.573575019836426,0.07284712791442871,13.727377161316083,14.713865172756377,2.6385663921166656e-38,-6.0,-976.0,-8.0,0.375,42.6875,-2.1875,1.5625,-0.1875,-1.375,170.5625,-0.1875,89.9375,-0.0555419921875,0.70465087890625,-0.7049560546875,0.05810546875,-2.0,3.0,-7.0,-3.0,-980.0,0.0,2482,2873,-306,
392,26.642241954803467,0.06866693496704102,14.5630498941009,14.713476465869432,2.6385663921166656e-38,0.0,-977.0,-4.0,-0.375,41.5625,-1.0,1.4375,-0.1875,-2.4375,170.6875,-0.0625,89.8125,-0.0562744140625,0.70404052734375,-0.70556640625,0.057373046875,2.0,3.0,-6.0,-1.0,-980.0,2.0,2518,2835,-338,
393,26.712580919265747,0.07033896446228027,14.216871226989083,14.712168816176018,2.6385663921166656e-38,5.0,-977.0,-8.0,0.0,40.5,-1.5,0.75,-0.0625,-2.1875,170.875,0.0625,89.75,-0.05731201171875,0.70343017578125,-0.70623779296875,0.05633544921875,2.0,1.0,-5.0,1.0,-980.0,3.0,2505,3080,-151,
394,26.78246307373047,0.06988215446472168,14.30980495177529,14.711118948072189,2.638638138598039e-38,8.0,-977.0,-3.0,1.0625,42.0,-1.0,0.25,0.0,-1.0625,170.9375,0.1875,89.75,-0.0579833984375,0.70318603515625,-0.7064208984375,0.0556640625,5.0,4.0,-1.0,3.0,-980.0,4.0,2407,3303,29,
395,26.847896814346313,0.06543374061584473,15.28263538945305,14.712511848932975,2.638638138598039e-38,8.0,-977.0,0.0,0.0,42.0,-1.375,-0.375,0.0625,0.0,171.0,0.1875,89.75,-0.05804443359375,0.70318603515625,-0.7064208984375,0.0555419921875,6.0,3.0,-3.0,3.0,-980.0,4.0,2403,3470,224,
396,26.91734004020691,0.0694432258605957,14.400252689980979,14.71170626103797,2.638638138598039e-38,6.0,-977.0,-10.0,0.0,42.375,-1.75,-0.625,0.0,0.875,170.9375,0.1875,89.75,-0.0579833984375,0.70330810546875,-0.706298828125,0.0556640625,3.0,2.0,-12.0,3.0,-980.0,3.0,2437,3540,381,
397,26.98360776901245,0.06626772880554199,15.09030138839419,14.712636034381902,2.638638138598039e-38,4.0,-977.0,-4.0,0.375,41.5625,-1.75,-0.75,0.0,0.9375,170.875,0.125,89.75,-0.0576171875,0.70361328125,-0.7060546875,0.05596923828125,0.0,4.0,-6.0,2.0,-980.0,3.0,2464,3582,500,
398,27.05436873435974,0.07076096534729004,14.132085325462528,14.711117598339296,2.638638138598039e-38,0.0,-978.0,-6.0,0.375,42.0,-2.1875,-0.125,-0.0625,0.4375,170.875,0.0625,89.8125,-0.05743408203125,0.70367431640625,-0.7059326171875,0.05615234375,-1.0,4.0,-16.0,2.0,-980.0,2.0,2406,3419,327,
399,27.121875047683716,0.06750631332397461,14.81342930402413,14.711372252047733,2.638638138598039e-38,1.0,-976.0,-8.0,0.0,42.375,-1.5,0.0625,0.0,-0.375,170.875,0.0625,89.8125,-0.05743408203125,0.70367431640625,-0.7059326171875,0.05615234375,-1.0,2.0,-10.0,2.0,-980.0,2.0,2399,3360,284,
